onset	duration	offset	block	task	trial	lexicality	congruency	stimulus	stimulus_spaced	correct	response_time	word_freq	nb_letters	nb_phonemes	ratio	nb_syllables
0.233076639880892	5	5.23307663988089	3	instructions lexical decision	n/a	n/a	n/a	n/a	n/a	n/a	n/a	n/a	n/a	n/a	n/a	n/a
10.4279	0.2014	10.6292	3	lexical decision	1	word	incongruent	vengeance	ve ng ea n ce	1	0.8689	17.03	9	5	1.8	2
13.0905	0.2014	13.2919	3	lexical decision	2	word	congruent	instant	in s t ant	1	0.9451	340.2	7	4	1.75	2
18.0576	0.2018	18.2594	3	lexical decision	3	pseudoword	incongruent	santeuse	sa n te u se	1	1.1649	n/a	8	5	1.6	2
20.6944	0.2015	20.896	3	lexical decision	4	word	incongruent	angoissant	a ngo is sa nt	1	0.7891	4.19	10	6	1.667	3
23.371	0.2017	23.5726	3	lexical decision	5	word	incongruent	chanson	c ha nso n	1	1.2384	46.55	7	4	1.75	2
25.7329	0.2015	25.9344	3	lexical decision	6	pseudoword	congruent	cauglant	c au g l ant	1	0.9345	n/a	8	5	1.6	2
28.1116	0.2016	28.3133	3	lexical decision	7	word	incongruent	gain	gai n	1	0.7477	5.88	4	2	2	1
30.4706	0.202	30.6726	3	lexical decision	8	word	congruent	cinglant	c in g l ant	1	0.9927	2.77	8	5	1.6	2
32.8498	0.2015	33.0513	3	lexical decision	9	word	incongruent	vaisselle	va i sse lle	1	0.8103	25.95	9	5	1.8	2
35.1925	0.2016	35.3941	3	lexical decision	10	word	incongruent	houleuse	ho ule us e	1	0.9505	2.16	8	4	2	2
37.5904	0.202	37.7924	3	lexical decision	11	word	congruent	fougueuse	f ou gu eu se	1	0.8798	3.45	9	5	1.8	2
40.2889	0.2015	40.4904	3	lexical decision	12	word	congruent	chiffon	ch i ff on	1	0.6901	18.99	7	4	1.75	2
42.9318	0.2016	43.1334	3	lexical decision	13	pseudoword	incongruent	liondain	l io nd ai n	1	1.1061	n/a	8	5	1.6	2
45.5887	0.2009	45.7896	3	lexical decision	14	pseudoword	incongruent	trant	t ra nt	1	0.9992	n/a	5	3	1.667	1
47.9687	0.2015	48.1702	3	lexical decision	15	word	incongruent	avant	a va nt	1	0.7153	21.35	5	3	1.667	2
50.3518	0.2016	50.5533	3	lexical decision	16	word	incongruent	banquier	ba nq u ie r	1	0.802	12.7	8	5	1.6	2
52.7125	0.2015	52.914	3	lexical decision	17	pseudoword	congruent	bitoumeau	b i t ou m eau	1	1.3122	n/a	9	6	1.5	3
55.1134	0.2015	55.315	3	lexical decision	18	word	congruent	bambou	b am b ou	1	0.8042	6.15	6	4	1.5	2
57.4493	0.2014	57.6506	3	lexical decision	19	word	congruent	enchanteur	en ch an t eur	1	0.8494	2.64	10	6	1.667	3
62.1306	0.2015	62.3322	3	lexical decision	20	pseudoword	congruent	beinf	b ein f	1	0.9158	n/a	5	3	1.667	1
64.4709	0.2013	64.6722	3	lexical decision	21	word	incongruent	souffrance	so u ff ra nc e	1	1.0485	47.16	10	6	1.667	2
69.4296	0.2015	69.6312	3	lexical decision	22	word	congruent	compagne	c om p a gne	1	1.0897	80	8	5	1.6	2
72.0605	0.2017	72.2622	3	lexical decision	23	pseudoword	incongruent	maillouge	ma i llo ug e	1	1.1337	n/a	9	5	1.8	2
77.052	0.202	77.2541	3	lexical decision	24	pseudoword	congruent	tanchant	t an ch ant	0	0.7051	n/a	8	4	2	2
79.3879	0.2015	79.5894	3	lexical decision	25	pseudoword	incongruent	hompeule	ho m pe ule	1	1.2393	n/a	8	4	2	2
84.3232	0.2026	84.5257	3	lexical decision	26	word	incongruent	bandeau	ba nd ea u	1	0.9058	6.49	7	4	1.75	2
86.7057	0.2016	86.9072	3	lexical decision	27	pseudoword	incongruent	adait	a da it	0	1.1362	n/a	5	3	1.667	2
89.049	0.2015	89.2505	3	lexical decision	28	pseudoword	incongruent	meillot	m ei llo t	1	1.0629	n/a	7	4	1.75	2
93.7544	0.2015	93.956	3	lexical decision	29	pseudoword	congruent	vessouillé	v e ss ou ill é	1	1.0023	n/a	10	6	1.667	3
96.0881	0.2017	96.2899	3	lexical decision	30	word	congruent	chauffant	ch au ff ant	1	0.6497	0.41	9	4	2.25	2
98.7677	0.2016	98.9694	3	lexical decision	31	pseudoword	incongruent	fourmand	fo ur m a nd	1	1.1449	n/a	8	5	1.6	2
101.4286	0.2015	101.6301	3	lexical decision	32	word	incongruent	allégeance	a ll ég ea n ce	1	0.805	1.42	10	6	1.667	3
103.8409	0.2017	104.0426	3	lexical decision	33	pseudoword	congruent	pansonce	p an s on ce	0	1.9806	n/a	8	5	1.6	2
106.1642	0.2014	106.3656	3	lexical decision	34	pseudoword	incongruent	cain	cai n	0	0.5163	n/a	4	2	2	1
108.5455	0.2014	108.7469	3	lexical decision	35	word	congruent	linge	l in ge	1	0.6541	47.3	5	3	1.667	1
110.9498	0.2015	111.1513	3	lexical decision	36	pseudoword	congruent	fairnouse	f ai r n ou se	1	1.1287	n/a	9	6	1.5	2
113.2851	0.2013	113.4864	3	lexical decision	37	pseudoword	incongruent	canreau	ca n re au	1	0.9123	n/a	7	4	1.75	2
115.9291	0.2013	116.1304	3	lexical decision	38	pseudoword	congruent	enquanseur	en qu an s eur	1	1.1651	n/a	10	6	1.667	3
118.3272	0.2016	118.5288	3	lexical decision	39	pseudoword	congruent	lanceteau	l an c e t eau	0	0.9121	n/a	9	6	1.5	3
120.6823	0.2019	120.8841	3	lexical decision	40	word	incongruent	empreinte	e mp rei nt e	1	0.7678	15.61	9	5	1.8	2
123.3661	0.2016	123.5677	3	lexical decision	41	word	congruent	penchant	p en ch ant	1	1.7729	5.27	8	4	2	2
128.064	0.2015	128.2655	3	lexical decision	42	word	incongruent	assassin	as sa ssi n	1	0.7281	20.34	8	5	1.6	3
130.6884	0.2016	130.8899	3	lexical decision	43	pseudoword	incongruent	fouillomon	fo ui llo m o n	1	0.9785	n/a	10	6	1.667	3
133.0464	0.2018	133.2482	3	lexical decision	44	pseudoword	congruent	gainple	g ain p le	1	1.1425	n/a	7	4	1.75	1
135.4337	0.2028	135.6365	3	lexical decision	45	pseudoword	incongruent	vanrreau	va nr rea u	1	0.9051	n/a	8	4	2	2
137.7734	0.2015	137.9749	3	lexical decision	46	pseudoword	incongruent	rymphe	ry mp he	1	0.7595	n/a	6	3	2	1
142.7668	0.2022	142.969	3	lexical decision	47	word	congruent	nain	n ain	1	0.6838	8.99	4	2	2	1
145.1046	0.202	145.3066	3	lexical decision	48	word	incongruent	lointain	loi n tai n	1	0.6981	91.96	8	5	1.6	2
147.4859	0.2015	147.6874	3	lexical decision	49	pseudoword	congruent	bombin	b om b in 	0	1.6456	n/a	6	4	1.5	2
152.4491	0.2022	152.6513	3	lexical decision	50	pseudoword	incongruent	auvaid	a uva id	1	0.7723	n/a	6	3	2	2
154.7844	0.2021	154.9865	3	lexical decision	51	pseudoword	congruent	fantresse	f an t r esse	1	1.125	n/a	9	6	1.5	2
157.1644	0.2014	157.3657	3	lexical decision	52	word	incongruent	confondant	co n fo n da nt	1	1.1839	0.95	10	6	1.667	3
159.8231	0.2013	160.0245	3	lexical decision	53	pseudoword	congruent	pranquain	p r an qu ain	1	0.9942	n/a	9	5	1.8	2
164.8063	0.2017	165.008	3	lexical decision	54	word	congruent	dauphin	d au ph in	1	0.7969	11.82	7	4	1.75	2
169.4487	0.2016	169.6503	3	lexical decision	55	pseudoword	congruent	coupoint	c ou p oint	1	0.9323	n/a	8	5	1.6	2
171.7834	0.2015	171.9849	3	lexical decision	56	pseudoword	congruent	manron	m an r on	1	1.0766	n/a	6	4	1.5	2
174.4255	0.2014	174.6269	3	lexical decision	57	word	congruent	montant	m on t ant	1	1.4384	12.84	7	4	1.75	2
176.8275	0.2018	177.0293	3	lexical decision	58	word	congruent	confident	c on f i d ent	1	0.7684	5.54	9	6	1.5	3
179.204	0.2016	179.4056	3	lexical decision	59	pseudoword	congruent	breuil	b r eu il	0	1.1127	n/a	6	4	1.5	2
181.5455	0.2026	181.7481	3	lexical decision	60	pseudoword	congruent	tronchalle	t r on ch a lle	0	1.3784	n/a	10	6	1.667	2
184.2315	0.2015	184.433	3	lexical decision	61	word	congruent	choquante	ch o qu an te	1	0.9522	1.69	9	5	1.8	2
186.6017	0.2016	186.8033	3	lexical decision	62	pseudoword	incongruent	tougne	to ug ne	1	1.5579	n/a	6	3	2	1
188.9931	0.2016	189.1948	3	lexical decision	63	word	incongruent	endeuillé	e n de ui llé	0	1.9514	1.35	9	5	1.8	3
191.3541	0.2015	191.5556	3	lexical decision	64	pseudoword	incongruent	chougnon	cho u gno n	0	1.4444	n/a	8	4	2	2
193.725	0.2015	193.9264	3	lexical decision	65	word	congruent	baleineau	b a l ei n eau	1	1.1626	0	9	6	1.5	3
196.1232	0.202	196.3253	3	lexical decision	66	word	congruent	ambiance	am b i an ce	1	0.7972	11.55	8	5	1.6	2
198.4654	0.2015	198.667	3	lexical decision	67	word	congruent	soucieuse	s ou c i eu se	1	1.23	16.62	9	6	1.5	2
200.8711	0.2015	201.0726	3	lexical decision	68	pseudoword	incongruent	entouce	e nto uc e	1	0.9012	n/a	7	4	1.75	2
203.2799	0.2015	203.4814	3	lexical decision	69	word	congruent	rougissant	r ou g i ss ant	1	0.8153	2.16	10	6	1.667	3
205.6816	0.202	205.8836	3	lexical decision	70	pseudoword	incongruent	congon	co n go n	1	0.8337	n/a	6	4	1.5	2
208.3144	0.2013	208.5157	3	lexical decision	71	word	incongruent	coupon	co u po n	1	1.8517	2.09	6	4	1.5	2
210.713	0.2019	210.9149	3	lexical decision	72	pseudoword	incongruent	échille	éc hi lle	0	0.7791	n/a	7	4	1.75	2
213.1007	0.2014	213.3021	3	lexical decision	73	word	incongruent	reine	re i ne	1	1.0422	33.78	5	3	1.667	1
215.4616	0.2014	215.663	3	lexical decision	74	word	congruent	méchant	m é ch ant	1	0.6575	34.05	7	4	1.75	2
218.1416	0.2015	218.3431	3	lexical decision	75	word	congruent	chatouille	ch a t ou ille	1	1.1553	0.54	10	5	2	2
220.8006	0.2016	221.0022	3	lexical decision	76	word	incongruent	bouée	bo ué e	1	0.7313	5.47	5	3	1.667	1
223.4826	0.2016	223.6843	3	lexical decision	77	pseudoword	congruent	pentouet	p en t ou et	1	0.8972	n/a	8	5	1.6	2
226.1385	0.2015	226.34	3	lexical decision	78	pseudoword	congruent	janguelle	j an gu elle	1	0.9592	n/a	9	5	1.8	2
228.4997	0.2018	228.7015	3	lexical decision	79	word	incongruent	bouleau	bo u lea u	1	0.964	4.05	7	4	1.75	2
230.8814	0.2015	231.0829	3	lexical decision	80	pseudoword	congruent	cansant	c an s ant	1	1.3642	n/a	7	4	1.75	2
233.2543	0.2016	233.4558	3	lexical decision	81	word	congruent	plaine	p l ai ne	1	0.7003	39.86	6	4	1.5	1
235.6208	0.2017	235.8225	3	lexical decision	82	pseudoword	congruent	bigne	b i gne	1	1.3026	n/a	5	3	1.667	1
237.9402	0.202	238.1423	3	lexical decision	83	pseudoword	congruent	tanleau	t an l eau	1	1.8322	n/a	7	4	1.75	2
242.864	0.2015	243.0655	3	lexical decision	84	pseudoword	incongruent	haurravant	ha u rra va nt	1	1.0793	n/a	10	5	2	3
245.2382	0.2025	245.4406	3	lexical decision	85	word	congruent	mensonge	m en s on ge	1	0.6351	35.41	8	5	1.6	2
247.5791	0.2015	247.7806	3	lexical decision	86	word	incongruent	rousse	ro us se	1	0.4572	40.41	6	3	2	1
249.9592	0.2022	250.1614	3	lexical decision	87	word	congruent	tombant	t om b ant	1	0.6589	9.12	7	4	1.75	2
252.3212	0.2019	252.5231	3	lexical decision	88	pseudoword	incongruent	orrigninse	o r ri gni n se	1	0.7269	n/a	10	6	1.667	3
254.6996	0.2015	254.9012	3	lexical decision	89	word	congruent	pince	p in ce	1	0.6554	14.73	5	3	1.667	1
257.0376	0.2025	257.2401	3	lexical decision	90	pseudoword	incongruent	entouillé	e n to ui llé	1	1.1873	n/a	9	5	1.8	3
259.4396	0.2013	259.6409	3	lexical decision	91	word	incongruent	gourmand	go ur m a nd	1	0.7755	9.86	8	5	1.6	2
261.764	0.2013	261.9653	3	lexical decision	92	pseudoword	congruent	banrraie	b an rr aie	1	1.2029	n/a	8	4	2	2
264.3755	0.2018	264.5773	3	lexical decision	93	pseudoword	incongruent	cain	ca in	1	1.9132	n/a	4	2	2	1
266.7497	0.2017	266.9514	3	lexical decision	94	pseudoword	incongruent	aucience	a uc ie n ce	1	1.4411	n/a	8	5	1.6	2
269.1206	0.2013	269.3219	3	lexical decision	95	pseudoword	incongruent	ittamance	it ta ma n c e	1	0.8082	n/a	9	6	1.5	3
271.7964	0.2018	271.9982	3	lexical decision	96	word	congruent	hanche	han che	1	0.6063	32.36	6	2	3	1
274.4589	0.2022	274.6611	3	lexical decision	97	pseudoword	incongruent	jouanre	jo ua nr e	1	1.0047	n/a	7	4	1.75	1
281.7578	0.2022	281.9599	3	lexical decision	98	pseudoword	incongruent	chuquon	c huq uo n	1	0.8976	n/a	7	4	1.75	2
284.4385	0.2015	284.6401	3	lexical decision	99	pseudoword	congruent	moupeau	m ou p eau	1	0.9189	n/a	7	4	1.75	2
286.8198	0.2015	287.0213	3	lexical decision	100	pseudoword	incongruent	traichant	t ra ic ha nt	1	1.8125	n/a	9	5	1.8	2
292.0804	0.2016	292.2819	3	lexical decision	101	pseudoword	congruent	haumoût	hau m oût	1	1.0898	n/a	7	3	2.333	2
294.4164	0.2021	294.6185	3	lexical decision	102	pseudoword	congruent	empout	em p out	1	2.4317	n/a	6	3	2	2
297.059	0.2015	297.2605	3	lexical decision	103	word	congruent	hindou	hin d ou	1	0.68	2.03	6	3	2	2
299.4577	0.2015	299.6592	3	lexical decision	104	word	incongruent	amphore	a mp ho re	1	0.7744	1.35	7	4	1.75	2
309.0509	0.202	309.2529	3	lexical decision	105	word	incongruent	enchaînée	e nc ha îné e	1	1.0249	3.11	9	5	1.8	3
311.4176	0.2013	311.6189	3	lexical decision	106	pseudoword	congruent	pouchant	p ou ch ant	1	1.1461	n/a	8	4	2	2
314.0707	0.2013	314.272	3	lexical decision	107	word	congruent	jonquille	j on qu ille	1	1.145	0.81	9	5	1.8	2
316.4563	0.2014	316.6577	3	lexical decision	108	word	incongruent	chouquette	c ho uq ue tte	1	0.8884	0.07	10	5	2	2
319.12	0.2016	319.3216	3	lexical decision	109	word	incongruent	aubaine	a uba i ne	1	0.7625	5.81	7	4	1.75	2
321.498	0.2013	321.6992	3	lexical decision	110	word	congruent	rencontre	r en c on t re	1	1.0426	81.76	9	6	1.5	2
323.9127	0.2022	324.1149	3	lexical decision	111	word	incongruent	maîtresse	ma ît re s se	1	0.7937	53.92	9	6	1.5	2
326.5363	0.2015	326.7378	3	lexical decision	112	pseudoword	congruent	combache	c om b a che	1	0.8222	n/a	8	5	1.6	2
329.2148	0.2019	329.4167	3	lexical decision	113	word	congruent	chaise	ch ai se	1	0.6005	118.31	6	3	2	1
336.4838	0.2015	336.6853	3	lexical decision	114	pseudoword	congruent	enchose	en ch o se	1	1.6453	n/a	7	4	1.75	2
341.1436	0.2027	341.3464	3	lexical decision	115	word	incongruent	poumon	po um o n	1	0.8054	21.55	6	4	1.5	2
343.8361	0.2015	344.0376	3	lexical decision	116	word	incongruent	fourneau	fo ur n ea u	1	0.7309	15.34	8	5	1.6	2
348.8376	0.2016	349.0392	3	lexical decision	117	pseudoword	incongruent	guenquette	g ue nq ue tte	0	0.8742	n/a	10	5	2	2
353.8383	0.2017	354.04	3	lexical decision	118	pseudoword	incongruent	queute	que u te	1	0.9514	n/a	6	3	2	1
356.1728	0.2015	356.3743	3	lexical decision	119	word	incongruent	blanquette	b la nq ue tte	1	0.876	1.01	10	6	1.667	2
358.8532	0.2022	359.0554	3	lexical decision	120	pseudoword	congruent	aige	ai ge	0	0.7675	n/a	4	2	2	1
372.614971488947	5	377.614971488947	4	instructions reading aloud	n/a	n/a	n/a	n/a	n/a	n/a	n/a	n/a	n/a	n/a	n/a	n/a
382.7528	0.2019	382.9548	4	reading aloud	1	pseudoword	incongruent	chain	c ha in	1	1.1167	n/a	5	2	2.5	1
385.2368	0.2016	385.4383	4	reading aloud	2	pseudoword	incongruent	loudetain	lo u de t ai n	1	1.0792	n/a	9	6	1.5	3
387.9138	0.2014	388.1153	4	reading aloud	3	pseudoword	congruent	feutteau	f eu tt eau	1	0.9134	n/a	8	4	2	2
390.2741	0.2015	390.4756	4	reading aloud	4	word	incongruent	rengaine	re ng a in e	1	1.0455	4.59	8	5	1.6	2
392.655	0.202	392.8571	4	reading aloud	5	word	incongruent	dénouement	d én o ue me nt	1	0.9869	4.05	10	6	1.667	3
395.0162	0.2014	395.2177	4	reading aloud	6	word	incongruent	citrouille	c it ro ui l le	1	0.9086	2.91	10	6	1.667	2
397.6954	0.2019	397.8972	4	reading aloud	7	pseudoword	incongruent	feurchille	fe ur c hi lle	0	n/a	n/a	10	6	1.667	2
400.0559	0.2016	400.2575	4	reading aloud	8	word	congruent	encombrant	en c om b r ant	1	0.8709	6.08	10	6	1.667	3
402.4342	0.2016	402.6358	4	reading aloud	9	word	congruent	touchante	t ou ch an te	1	0.8988	9.73	9	5	1.8	2
405.0911	0.2015	405.2926	4	reading aloud	10	word	congruent	nouveau	n ou v eau	1	0.8303	292.43	7	4	1.75	2
409.7768	0.2015	409.9783	4	reading aloud	11	pseudoword	congruent	aubluche	au b l u che	0	n/a	n/a	8	5	1.6	2
414.7158	0.2015	414.9174	4	reading aloud	12	word	congruent	humeur	hu m eu r	1	1.0222	58.04	6	4	1.5	2
417.1506	0.2014	417.352	4	reading aloud	13	word	congruent	aisance	ai s an ce	1	0.9078	15.41	7	4	1.75	2
419.8305	0.2013	420.0318	4	reading aloud	14	word	incongruent	trentaine	tre n ta in e	1	1.0537	13.45	9	6	1.5	2
422.1883	0.2013	422.3896	4	reading aloud	15	word	congruent	aire	ai re	1	0.9942	5.14	4	2	2	1
424.8724	0.2015	425.074	4	reading aloud	16	pseudoword	congruent	dallin	d a ll in	1	1.0715	n/a	6	4	1.5	2
427.2336	0.2029	427.4365	4	reading aloud	17	word	incongruent	imparfait	i mp a rf a it	1	0.9219	3.11	9	6	1.5	3
429.6124	0.2015	429.8139	4	reading aloud	18	pseudoword	incongruent	imphongé	i mp ho ng é	1	1.0875	n/a	8	5	1.6	3
431.9712	0.2015	432.1728	4	reading aloud	19	pseudoword	congruent	nousse	n ou sse	1	0.9525	n/a	6	3	2	1
436.6574	0.2015	436.8589	4	reading aloud	20	pseudoword	incongruent	saillaîte	s ai lla ît e	1	0.9858	n/a	9	5	1.8	2
439.3892	0.2015	439.5907	4	reading aloud	21	word	incongruent	goutte	go u tte	1	0.8632	64.32	6	3	2	1
441.7739	0.2015	441.9755	4	reading aloud	22	word	congruent	plongeuse	p l on g eu se	1	0.8299	3.11	9	6	1.5	2
449.0378	0.2015	449.2393	4	reading aloud	23	pseudoword	incongruent	nuant	n ua nt	1	0.8264	n/a	5	3	1.667	2
451.4544	0.2015	451.6559	4	reading aloud	24	word	congruent	desséchant	d e ss é ch ant	1	0.6702	0.2	10	6	1.667	3
453.8103	0.2016	454.0119	4	reading aloud	25	pseudoword	congruent	baichoîte	b ai ch oî te	1	0.8486	n/a	9	6	1.5	2
456.188	0.2015	456.3895	4	reading aloud	26	pseudoword	congruent	hulour	hu l our	1	0.8549	n/a	6	4	1.5	2
458.8506	0.2015	459.0521	4	reading aloud	27	word	incongruent	heureuse	he u re use	1	1.0519	190	8	4	2	2
463.8349	0.2013	464.0362	4	reading aloud	28	word	congruent	naissance	n ai ss an ce	1	1.1816	52.91	9	5	1.8	2
466.5689	0.2013	466.7701	4	reading aloud	29	word	congruent	pamphlet	p am ph l et	1	1.0347	1.42	8	5	1.6	2
468.9288	0.2022	469.131	4	reading aloud	30	pseudoword	congruent	condant	c on d ant	1	1.075	n/a	7	4	1.75	2
471.3088	0.2016	471.5104	4	reading aloud	31	pseudoword	congruent	seuillête	s eu ill ê te	1	1.1546	n/a	9	5	1.8	2
473.6918	0.2013	473.8931	4	reading aloud	32	word	congruent	constante	c on s t an te	1	1.182	16.82	9	6	1.5	2
478.3542	0.2016	478.5558	4	reading aloud	33	pseudoword	congruent	lausseur	l au ss eur	1	1.1411	n/a	8	5	1.6	2
481.0905	0.2016	481.2921	4	reading aloud	34	word	incongruent	chauffeur	c ha uf fe ur	1	1.0601	49.86	9	5	1.8	2
483.4707	0.2016	483.6723	4	reading aloud	35	pseudoword	incongruent	détouille	d ét o ui lle	1	1.1693	n/a	9	5	1.8	2
486.1322	0.2015	486.3337	4	reading aloud	36	pseudoword	incongruent	imbrante	i mb ra n te	1	1.1611	n/a	8	5	1.6	2
493.4182	0.2016	493.6197	4	reading aloud	37	pseudoword	incongruent	choupache	c ho up ac he	0	n/a	n/a	9	5	1.8	2
495.8051	0.2015	496.0066	4	reading aloud	38	pseudoword	congruent	chon	ch on	1	0.8025	n/a	4	2	2	1
498.1895	0.2016	498.3911	4	reading aloud	39	pseudoword	congruent	ampoune	am p ou ne	1	1.1542	n/a	7	4	1.75	2
500.5685	0.2015	500.77	4	reading aloud	40	pseudoword	incongruent	mounnon	mo un no n	1	1.0661	n/a	7	4	1.75	2
502.9279	0.2015	503.1294	4	reading aloud	41	pseudoword	incongruent	ronteau	ro n tea u	1	0.9424	n/a	7	4	1.75	2
505.6089	0.2021	505.811	4	reading aloud	42	word	congruent	soudain	s ou d ain	1	0.9693	65.27	7	4	1.75	2
510.2722	0.2016	510.4738	4	reading aloud	43	word	incongruent	tendon	te n do n	0	n/a	3.99	6	4	1.5	2
512.7074	0.2026	512.91	4	reading aloud	44	word	incongruent	courant	co ur a nt	1	0.9718	79.73	7	4	1.75	2
515.0887	0.2013	515.29	4	reading aloud	45	word	congruent	ronronnant	r on r o nn ant	1	1.0335	0.81	10	6	1.667	3
517.847	0.2015	518.0485	4	reading aloud	46	word	incongruent	manquant	ma nq ua nt	1	1.1239	2.23	8	4	2	2
525.1332	0.2013	525.3346	4	reading aloud	47	pseudoword	congruent	enreinte	en r ein te	0	n/a	n/a	8	4	2	2
527.5477	0.2015	527.7492	4	reading aloud	48	pseudoword	congruent	encrunt	en c r unt	0	n/a	n/a	7	4	1.75	2
529.909	0.2015	530.1105	4	reading aloud	49	word	incongruent	inconstant	i nc o ns ta nt	1	0.7078	0.54	10	6	1.667	3
532.5862	0.2021	532.7883	4	reading aloud	50	pseudoword	congruent	semphle	s em ph le	1	0.7531	n/a	7	4	1.75	1
535.2471	0.2015	535.4486	4	reading aloud	51	pseudoword	congruent	soussant	s ou ss ant	1	0.82	n/a	8	4	2	2
537.9054	0.2031	538.1086	4	reading aloud	52	pseudoword	incongruent	emblon	e mb lo n	1	0.7598	n/a	6	4	1.5	2
540.2866	0.2016	540.4882	4	reading aloud	53	word	incongruent	bouchon	bo uc ho n	1	0.7237	14.46	7	4	1.75	2
542.6681	0.2015	542.8697	4	reading aloud	54	word	incongruent	banquise	ba nq u is e	1	0.8311	1.55	8	5	1.6	2
547.9314	0.2015	548.1329	4	reading aloud	55	pseudoword	incongruent	ouplant	o up la nt	0	n/a	n/a	7	4	1.75	2
550.6657	0.2015	550.8672	4	reading aloud	56	pseudoword	incongruent	banquace	ba nq u ac e	0	n/a	n/a	8	5	1.6	2
553.0261	0.2016	553.2277	4	reading aloud	57	word	incongruent	manchette	ma nc he tte	1	0.7473	6.22	9	5	1.8	2
555.406	0.2015	555.6075	4	reading aloud	58	pseudoword	incongruent	heudaise	he u da ise	1	1.0385	n/a	8	4	2	2
558.0642	0.2021	558.2663	4	reading aloud	59	word	congruent	laineux	l ai n eux	1	0.8338	1.89	7	4	1.75	2
560.4469	0.2015	560.6484	4	reading aloud	60	pseudoword	incongruent	mantroche	ma n tr oc h e	0	n/a	n/a	9	6	1.5	2
562.8269	0.2023	563.0292	4	reading aloud	61	pseudoword	incongruent	guessier	g u es sie r	1	0.9124	n/a	8	5	1.6	2
565.4872	0.2015	565.6887	4	reading aloud	62	word	incongruent	chapiteau	c ha p it ea u	1	0.8993	3.45	9	6	1.5	3
567.866	0.2015	568.0674	4	reading aloud	63	word	congruent	chaudron	ch au d r on	1	1.0516	5.81	8	5	1.6	2
572.529	0.2012	572.7302	4	reading aloud	64	pseudoword	congruent	engourrant	en g ou rr ant	0	n/a	n/a	10	5	2	3
575.2637	0.2013	575.465	4	reading aloud	65	word	congruent	endeuillée	en d eu ill ée	1	0.851	1.35	10	5	2	3
580.2476	0.2021	580.4497	4	reading aloud	66	word	congruent	fourreau	f ou rr eau	1	1.064	4.32	8	4	2	2
582.6869	0.2015	582.8884	4	reading aloud	67	word	congruent	entourage	en t ou r a ge	1	1.071	10.74	9	6	1.5	3
590.254	0.2021	590.4562	4	reading aloud	68	pseudoword	congruent	chossemain	ch o ss e m ain	1	1.1206	n/a	10	6	1.667	3
592.6647	0.2029	592.8676	4	reading aloud	69	pseudoword	congruent	anloiche	an l oi che	1	0.9078	n/a	8	5	1.6	2
595.0239	0.2015	595.2254	4	reading aloud	70	word	congruent	sentant	s en t ant	1	0.7561	2.84	7	4	1.75	2
597.4053	0.2015	597.6068	4	reading aloud	71	word	incongruent	moucheron	mo uc h e ro n	1	1.0335	2.43	9	6	1.5	3
599.7841	0.202	599.9861	4	reading aloud	72	pseudoword	incongruent	minchant	mi nc ha nt	1	1.0296	n/a	8	4	2	2
602.4441	0.2015	602.6456	4	reading aloud	73	word	congruent	caillou	c a ill ou	1	0.8876	38.58	7	4	1.75	2
605.102	0.2024	605.3043	4	reading aloud	74	word	incongruent	chaud	c ha ud	1	0.7644	113.31	5	2	2.5	1
607.4829	0.2015	607.6845	4	reading aloud	75	word	incongruent	douillet	do uil let	1	0.9735	6.96	8	4	2	2
609.8644	0.202	610.0664	4	reading aloud	76	word	congruent	enquête	en qu ê te	1	0.8589	21.28	7	4	1.75	2
612.223	0.2015	612.4245	4	reading aloud	77	pseudoword	congruent	trinche	t r in che	1	0.8478	n/a	7	4	1.75	1
617.2075	0.2016	617.4091	4	reading aloud	78	pseudoword	congruent	enssête	en ss ê te	1	1.0505	n/a	7	4	1.75	2
619.9436	0.2013	620.1449	4	reading aloud	79	pseudoword	incongruent	chincedant	c hi n ce da nt	1	0.9814	n/a	10	6	1.667	3
622.301	0.2013	622.5023	4	reading aloud	80	pseudoword	incongruent	mougnette	mo ug ne tte	1	0.8852	n/a	9	5	1.8	2
624.983	0.2014	625.1844	4	reading aloud	81	pseudoword	incongruent	incerdant	i nc e rd a nt	0	n/a	n/a	9	6	1.5	3
627.3402	0.2014	627.5416	4	reading aloud	82	pseudoword	incongruent	deuillou	de uil lou	1	1.3442	n/a	8	4	2	2
629.7246	0.2015	629.9261	4	reading aloud	83	word	incongruent	dépouille	d ép o ui lle	1	1.0381	6.62	9	5	1.8	2
632.3822	0.2016	632.5838	4	reading aloud	84	word	congruent	entendant	en t en d ant	1	0.9956	0.74	9	5	1.8	3
634.7631	0.2015	634.9646	4	reading aloud	85	word	congruent	impuissant	im p u i ss ant	1	0.8962	11.55	10	6	1.667	3
637.1207	0.2016	637.3223	4	reading aloud	86	word	congruent	honneur	ho nn eur	1	0.8465	97.36	7	4	1.75	2
639.804	0.2015	640.0055	4	reading aloud	87	word	incongruent	soignante	so ig na n te	1	0.894	0.27	9	6	1.5	2
642.1607	0.202	642.3627	4	reading aloud	88	pseudoword	incongruent	géein	gé ei n	1	1.0939	n/a	5	3	1.667	2
644.5431	0.2018	644.7449	4	reading aloud	89	word	incongruent	mouvement	mo uv e me nt	1	1.078	182.97	9	6	1.5	3
646.9771	0.2017	647.1788	4	reading aloud	90	pseudoword	incongruent	incequant	i nc e qua nt	0	n/a	n/a	9	5	1.8	3
649.6828	0.2016	649.8844	4	reading aloud	91	pseudoword	congruent	chindron	ch in d r on	1	0.9199	n/a	8	5	1.6	2
652.3423	0.2018	652.544	4	reading aloud	92	word	congruent	innocence	i nn o c en ce	1	0.9785	20	9	6	1.5	3
654.7208	0.202	654.9228	4	reading aloud	93	pseudoword	congruent	naidant	n ai d ant	0	n/a	n/a	7	4	1.75	2
657.3824	0.2017	657.5841	4	reading aloud	94	pseudoword	incongruent	enquandée	e nq ua ndé e	0	n/a	n/a	9	5	1.8	3
664.9689	0.2015	665.1704	4	reading aloud	95	pseudoword	congruent	banchon	b an ch on	1	1.1513	n/a	7	4	1.75	2
672.2672	0.2013	672.4685	4	reading aloud	96	pseudoword	congruent	groussant	g r ou ss ant	1	1.1205	n/a	9	5	1.8	2
674.6797	0.2013	674.881	4	reading aloud	97	pseudoword	incongruent	abanffant	a ba nf fa nt	0	n/a	n/a	9	5	1.8	3
677.3372	0.2013	677.5385	4	reading aloud	98	word	congruent	enceinte	en c ein te	1	0.8443	12.43	8	4	2	2
679.7221	0.2022	679.9243	4	reading aloud	99	word	congruent	orangeade	o r an ge a de	1	1.0842	2.03	9	6	1.5	3
682.38	0.2016	682.5816	4	reading aloud	100	pseudoword	incongruent	pambant	pa mb an t	0	n/a	n/a	7	4	1.75	2
684.7586	0.2015	684.9601	4	reading aloud	101	word	congruent	essaim	e ss aim	1	0.9343	4.53	6	3	2	2
687.1402	0.2015	687.3417	4	reading aloud	102	word	incongruent	inchangé	i nc ha ng é	1	1.0306	1.69	8	5	1.6	3
689.9019	0.2015	690.1033	4	reading aloud	103	pseudoword	incongruent	intouteur	i nt o ut e ur	1	1.3411	n/a	9	6	1.5	3
692.6584	0.2015	692.8599	4	reading aloud	104	word	incongruent	neuve	ne u ve	1	0.8868	113.18	5	3	1.667	1
695.0402	0.2024	695.2426	4	reading aloud	105	pseudoword	incongruent	prouche	p ro uc he	1	1.187	n/a	7	4	1.75	1
697.7012	0.2015	697.9027	4	reading aloud	106	word	incongruent	souterrain	so u t err ai n	1	0.9448	13.04	10	6	1.667	3
702.6844	0.2021	702.8865	4	reading aloud	107	word	incongruent	composant	co m p os a nt	1	1.1577	1.49	9	6	1.5	3
705.0171	0.2015	705.2186	4	reading aloud	108	word	incongruent	douche	do uc he	1	0.973	23.85	6	3	2	1
707.4558	0.2022	707.658	4	reading aloud	109	word	congruent	noeud	n oeud	1	0.9794	24.26	5	2	2.5	1
709.859	0.2015	710.0605	4	reading aloud	110	pseudoword	congruent	breille	b r e ille	1	0.9935	n/a	7	4	1.75	1
712.2397	0.2015	712.4412	4	reading aloud	111	pseudoword	congruent	houceuse	h ou c eu se	0	n/a	n/a	8	4	2	2
714.9992	0.2015	715.2006	4	reading aloud	112	pseudoword	congruent	sengeonie	s en ge o n ie	1	0.9694	n/a	9	6	1.5	3
717.3787	0.2021	717.5808	4	reading aloud	113	pseudoword	incongruent	taison	ta i so n	1	1.2784	n/a	6	4	1.5	2
720.1356	0.2013	720.3369	4	reading aloud	114	pseudoword	congruent	hossant	ho ss ant	0	n/a	n/a	7	4	1.75	2
725.5017	0.2014	725.7032	4	reading aloud	115	pseudoword	congruent	enteuillon	en t eu ill on	1	1.1855	n/a	10	5	2	3
727.9378	0.2013	728.1391	4	reading aloud	116	word	incongruent	chancelant	c ha n ce la nt	1	0.9202	2.23	10	6	1.667	3
730.3174	0.2024	730.5198	4	reading aloud	117	pseudoword	congruent	poigeain	p oi ge ain	1	1.1587	n/a	8	5	1.6	2
732.6775	0.2015	732.879	4	reading aloud	118	word	incongruent	champ	c ha mp	1	0.8303	106.49	5	2	2.5	1
735.0574	0.2021	735.2595	4	reading aloud	119	word	congruent	beige	b ei ge	1	0.7289	8.11	5	3	1.667	1
737.4362	0.2015	737.6377	4	reading aloud	120	word	incongruent	souhait	so uha it	1	0.7638	8.65	7	3	2.333	1
