onset	duration	offset	block	task	trial	lexicality	congruency	stimulus	stimulus_spaced	correct	response_time	word_freq	nb_letters	nb_phonemes	ratio	nb_syllables
7.33302181466979	5	12.3330218146698	1	instructions lexical decision	n/a	n/a	n/a	n/a	n/a	n/a	n/a	n/a	n/a	n/a	n/a	n/a
17.5594	0.2013	17.7607	1	lexical decision	1	word	incongruent	phalange	p ha la n ge	1	0.9025	5.2	8	5	1.6	2
19.903	0.2018	20.1048	1	lexical decision	2	pseudoword	incongruent	congon	co n go n	1	0.9497	n/a	6	4	1.5	2
22.5718	0.2014	22.7732	1	lexical decision	3	pseudoword	congruent	tanneau	t a nn eau	1	0.891	n/a	7	4	1.75	2
25.217	0.2016	25.4186	1	lexical decision	4	pseudoword	congruent	ennoûlant	en n oû l ant	1	0.8996	n/a	9	5	1.8	3
30.2189	0.2023	30.4211	1	lexical decision	5	word	incongruent	continent	co nt in e nt	1	0.7027	15.95	9	6	1.5	3
32.8478	0.2019	33.0498	1	lexical decision	6	pseudoword	incongruent	roeud	ro eud	1	0.7337	n/a	5	2	2.5	1
35.5139	0.2015	35.7154	1	lexical decision	7	word	congruent	symphonie	s ym ph o n ie	1	0.6987	5.54	9	6	1.5	3
38.191	0.2015	38.3925	1	lexical decision	8	word	congruent	terreau	t e rr eau	1	0.6364	3.78	7	4	1.75	2
43.4564	0.2017	43.6581	1	lexical decision	9	word	incongruent	embrouille	e mb ro ui lle	1	1.324	4.39	10	5	2	2
45.7887	0.2015	45.9902	1	lexical decision	10	pseudoword	incongruent	blauche	b la uc he	0	1.1078	n/a	7	4	1.75	1
48.1861	0.2015	48.3876	1	lexical decision	11	word	incongruent	nourrisson	no urr is so n	1	0.6762	4.53	10	6	1.667	3
50.8305	0.2014	51.032	1	lexical decision	12	pseudoword	congruent	quophon	qu o ph on	1	0.7189	n/a	7	4	1.75	2
53.2089	0.2021	53.411	1	lexical decision	13	word	congruent	train	t r ain	1	0.6224	288.65	5	3	1.667	1
57.8638	0.2014	58.0652	1	lexical decision	14	word	congruent	gagnant	g a gn ant	1	0.7255	1.89	7	4	1.75	2
60.2745	0.2013	60.4758	1	lexical decision	15	word	congruent	boeuf	b oeu f	1	0.6617	21.01	5	3	1.667	1
65.1923	0.2017	65.394	1	lexical decision	16	pseudoword	incongruent	chéluneur	c hé l un eu r	1	0.8298	n/a	9	6	1.5	3
67.8275	0.2013	68.0288	1	lexical decision	17	word	congruent	épaulette	é p au l ette	1	0.8766	2.97	9	6	1.5	3
70.152	0.2014	70.3535	1	lexical decision	18	word	congruent	couvent	c ou v ent	1	0.749	26.15	7	4	1.75	2
74.773	0.2015	74.9744	1	lexical decision	19	word	incongruent	sentant	se n ta nt	1	1.035	2.84	7	4	1.75	2
77.1587	0.2015	77.3602	1	lexical decision	20	pseudoword	congruent	raisissant	r ai s i ss ant	1	0.9623	n/a	10	6	1.667	3
79.789	0.2014	79.9904	1	lexical decision	21	word	incongruent	tranquille	t ra nq ui lle	1	1.1379	91.96	10	6	1.667	2
82.1462	0.2022	82.3484	1	lexical decision	22	word	incongruent	ascendance	as ce n da nc e	1	0.9227	2.23	10	6	1.667	3
87.1329	0.2015	87.3344	1	lexical decision	23	word	incongruent	contraire	co n t ra i re	1	0.7099	126.01	9	6	1.5	2
91.7727	0.2016	91.9743	1	lexical decision	24	pseudoword	congruent	incequant	in c e qu ant	1	0.9431	n/a	9	5	1.8	3
96.7119	0.2026	96.9146	1	lexical decision	25	pseudoword	incongruent	empout	e mpo ut	1	0.9978	n/a	6	3	2	2
99.0707	0.2015	99.2721	1	lexical decision	26	word	incongruent	ancien	a nc ie n	1	0.589	154.86	6	4	1.5	2
101.7258	0.202	101.9278	1	lexical decision	27	word	incongruent	aile	a ile	1	0.8309	60.47	4	2	2	1
104.108	0.2015	104.3095	1	lexical decision	28	word	incongruent	bûche	b ûc he	1	0.6196	13.18	5	3	1.667	1
106.7682	0.2015	106.9696	1	lexical decision	29	pseudoword	incongruent	groussant	g ro us sa nt	1	0.8875	n/a	9	5	1.8	2
111.7295	0.2019	111.9314	1	lexical decision	30	word	congruent	hautain	hau t ain	1	0.7811	10.88	7	3	2.333	2
114.0488	0.2013	114.2501	1	lexical decision	31	pseudoword	incongruent	moeutien	m oe u ti en	1	0.7618	n/a	8	5	1.6	2
116.4468	0.2013	116.6482	1	lexical decision	32	word	incongruent	arrangeant	a rra ng ea nt	1	0.6738	0.47	10	5	2	3
119.125	0.2022	119.3272	1	lexical decision	33	word	incongruent	assassin	as sa ssi n	1	0.6474	20.34	8	5	1.6	3
121.7867	0.2015	121.9881	1	lexical decision	34	word	incongruent	agneau	ag nea u	1	0.5338	8.78	6	3	2	2
124.4703	0.2015	124.6718	1	lexical decision	35	pseudoword	incongruent	indantant	i nda n ta nt	1	0.8352	n/a	9	5	1.8	3
126.8284	0.2016	127.03	1	lexical decision	36	pseudoword	incongruent	soncieuse	so nc ie u s e	0	0.951	n/a	9	6	1.5	2
129.2008	0.2017	129.4024	1	lexical decision	37	word	congruent	hanche	han che	1	0.7256	32.36	6	2	3	1
131.5669	0.2015	131.7684	1	lexical decision	38	pseudoword	congruent	enreinte	en r ein te	0	0.6945	n/a	8	4	2	2
133.9454	0.2014	134.1469	1	lexical decision	39	word	congruent	enquête	en qu ê te	1	0.6858	21.28	7	4	1.75	2
136.3073	0.2024	136.5097	1	lexical decision	40	word	congruent	nouveau	n ou v eau	1	0.608	292.43	7	4	1.75	2
138.686	0.2015	138.8874	1	lexical decision	41	pseudoword	incongruent	graie	g ra ie	0	0.9642	n/a	5	3	1.667	1
141.0111	0.2015	141.2125	1	lexical decision	42	word	incongruent	ouvrant	o uv ra nt	1	0.6551	3.18	7	4	1.75	2
143.3277	0.2014	143.5291	1	lexical decision	43	pseudoword	congruent	ampoune	am p ou ne	1	0.9665	n/a	7	4	1.75	2
148.6421	0.2014	148.8435	1	lexical decision	44	pseudoword	incongruent	lanceteau	la nc et ea u	1	0.9031	n/a	9	6	1.5	3
150.9809	0.2015	151.1824	1	lexical decision	45	word	incongruent	guinguette	g ui ng ue tte	1	0.7602	3.04	10	5	2	2
153.3066	0.2019	153.5085	1	lexical decision	46	pseudoword	congruent	rangessant	r an g e ss ant	1	0.8896	n/a	10	6	1.667	3
155.6849	0.2015	155.8864	1	lexical decision	47	pseudoword	incongruent	emblon	e mb lo n	1	0.8721	n/a	6	4	1.5	2
158.0313	0.2014	158.2327	1	lexical decision	48	word	congruent	bouillon	b ou ill on	1	0.6858	8.92	8	4	2	2
160.4248	0.2018	160.6266	1	lexical decision	49	pseudoword	incongruent	fenteau	fe n te au	1	0.9032	n/a	7	4	1.75	2
162.7782	0.2013	162.9796	1	lexical decision	50	pseudoword	incongruent	tanleau	ta n le au	1	0.8147	n/a	7	4	1.75	2
165.466	0.2013	165.6673	1	lexical decision	51	pseudoword	congruent	noussante	n ou ss an te	1	0.8969	n/a	9	5	1.8	2
167.8026	0.2014	168.004	1	lexical decision	52	word	incongruent	emprunt	e mp ru nt	1	1.0233	4.73	7	4	1.75	2
170.2052	0.2014	170.4066	1	lexical decision	53	word	congruent	guerrier	gu e rr i er	1	0.6697	10	8	5	1.6	2
177.7924	0.202	177.9944	1	lexical decision	54	word	congruent	causant	c au s ant	1	0.9493	1.96	7	4	1.75	2
180.188	0.2016	180.3896	1	lexical decision	55	word	congruent	saillante	s a ill an te	1	0.9869	10.07	9	5	1.8	2
182.5661	0.2016	182.7678	1	lexical decision	56	word	congruent	dessin	d e ss in	1	0.5377	56.28	6	4	1.5	2
184.9519	0.2026	185.1545	1	lexical decision	57	word	congruent	quignon	qu i gn on	0	0.9989	2.43	7	4	1.75	2
187.6065	0.2017	187.8082	1	lexical decision	58	pseudoword	incongruent	mougnette	mo ug ne tte	1	1.1841	n/a	9	5	1.8	2
190.2659	0.2015	190.4674	1	lexical decision	59	word	incongruent	souillure	so u il lu re	0	1.2198	2.91	9	5	1.8	2
192.6355	0.2023	192.8378	1	lexical decision	60	word	congruent	impuissant	im p u i ss ant	1	0.8121	11.55	10	6	1.667	3
194.9996	0.2016	195.2011	1	lexical decision	61	pseudoword	incongruent	ouplant	o up la nt	1	1.0981	n/a	7	4	1.75	2
197.6852	0.2022	197.8874	1	lexical decision	62	word	incongruent	plainte	pl ai n te	1	0.6854	26.69	7	4	1.75	1
202.6474	0.2015	202.8489	1	lexical decision	63	word	incongruent	chaud	c ha ud	1	0.6212	113.31	5	2	2.5	1
205.2814	0.202	205.4834	1	lexical decision	64	word	incongruent	oeuf	o euf	1	0.5192	50.14	4	2	2	1
207.6662	0.2026	207.8688	1	lexical decision	65	pseudoword	congruent	maissanle	m ai ss an le	1	1.4582	n/a	9	5	1.8	2
210.056	0.2014	210.2575	1	lexical decision	66	word	incongruent	planche	p la nc he	1	0.6425	41.55	7	4	1.75	1
212.4025	0.2013	212.6038	1	lexical decision	67	pseudoword	incongruent	quau	qua u	1	1.0559	n/a	4	2	2	1
214.7915	0.2013	214.9928	1	lexical decision	68	pseudoword	congruent	seuge	s eu ge	1	0.9149	n/a	5	3	1.667	1
219.4466	0.2013	219.6479	1	lexical decision	69	word	congruent	enseignant	en s ei gn ant	1	0.7037	1.69	10	5	2	3
224.0889	0.2017	224.2906	1	lexical decision	70	pseudoword	congruent	enssête	en ss ê te	1	1.0283	n/a	7	4	1.75	2
226.4515	0.2015	226.653	1	lexical decision	71	pseudoword	congruent	batougne	ba t ou gne	1	0.9837	n/a	8	5	1.6	2
229.107	0.2015	229.3084	1	lexical decision	72	pseudoword	incongruent	coutronte	co u tr o nt e	1	0.9493	n/a	9	6	1.5	2
233.7993	0.2015	234.0008	1	lexical decision	73	pseudoword	incongruent	vessouillé	v es so ui ll é	1	0.8509	n/a	10	6	1.667	3
236.1238	0.2015	236.3253	1	lexical decision	74	word	incongruent	outrance	o ut ra n ce	1	0.7662	3.51	8	5	1.6	2
238.4443	0.2014	238.6457	1	lexical decision	75	pseudoword	congruent	chochoute	ch o ch ou te	0	0.6927	n/a	9	5	1.8	2
240.7613	0.2014	240.9627	1	lexical decision	76	pseudoword	incongruent	éphon	ép ho n	1	0.8408	n/a	5	3	1.667	2
243.4432	0.2015	243.6447	1	lexical decision	77	pseudoword	congruent	cauchette	c au ch ette	1	1.0467	n/a	9	5	1.8	2
245.8027	0.2015	246.0041	1	lexical decision	78	pseudoword	congruent	noumon	n ou m on 	1	0.9594	n/a	6	4	1.5	2
248.5018	0.2019	248.7037	1	lexical decision	79	word	congruent	enchanteur	en ch an t eur	1	0.7102	2.64	10	6	1.667	3
250.842	0.2015	251.0434	1	lexical decision	80	pseudoword	incongruent	cheue	c he ue	1	0.784	n/a	5	2	2.5	1
253.2247	0.2018	253.4265	1	lexical decision	81	word	incongruent	chapiteau	c ha p it ea u	1	1.3342	3.45	9	6	1.5	3
255.5828	0.2017	255.7844	1	lexical decision	82	word	congruent	quinte	qu in te	1	0.7752	4.86	6	3	2	1
257.9651	0.2016	258.1667	1	lexical decision	83	pseudoword	congruent	coudraince	c ou d r ain ce	1	0.8496	n/a	10	6	1.667	2
260.3365	0.2015	260.538	1	lexical decision	84	word	incongruent	coupon	co u po n	1	0.5783	2.09	6	4	1.5	2
263.0022	0.2013	263.2035	1	lexical decision	85	pseudoword	congruent	aupoune	au p ou ne	1	0.7615	n/a	7	4	1.75	2
268.2657	0.2013	268.4671	1	lexical decision	86	word	congruent	babouche	b a b ou che	1	0.9019	2.64	8	5	1.6	2
270.6507	0.2015	270.8521	1	lexical decision	87	pseudoword	incongruent	coupeiller	co u p ei lle r	1	1.0881	n/a	10	6	1.667	3
272.9815	0.2013	273.1828	1	lexical decision	88	pseudoword	incongruent	minchant	mi nc ha nt	1	1.1621	n/a	8	4	2	2
275.6626	0.2015	275.8641	1	lexical decision	89	pseudoword	congruent	oipeau	oi p eau	1	0.8801	n/a	6	4	1.5	2
278.0236	0.2018	278.2254	1	lexical decision	90	word	congruent	encombrant	en c om b r ant	1	0.6861	6.08	10	6	1.667	3
280.6532	0.2014	280.8546	1	lexical decision	91	pseudoword	incongruent	mouque	mo uq ue	1	0.8074	n/a	6	3	2	1
283.0634	0.2021	283.2655	1	lexical decision	92	pseudoword	congruent	orrigninse	o rr i gn in se	1	0.8272	n/a	10	6	1.667	3
285.7126	0.2015	285.9141	1	lexical decision	93	pseudoword	incongruent	contement	co nt em e nt	1	1.131	n/a	9	6	1.5	3
288.1012	0.2015	288.3028	1	lexical decision	94	word	congruent	humain	hu m ain	1	0.6353	111.55	6	3	2	2
290.7772	0.2015	290.9787	1	lexical decision	95	pseudoword	incongruent	guenquette	g ue nq ue tte	1	1.1142	n/a	10	5	2	2
295.4432	0.2015	295.6446	1	lexical decision	96	word	incongruent	grain	g rai n	1	0.6482	35.95	5	3	1.667	1
297.782	0.2015	297.9834	1	lexical decision	97	pseudoword	congruent	houceuse	h ou c eu se	1	0.7434	n/a	8	4	2	2
307.0721	0.2016	307.2737	1	lexical decision	98	pseudoword	incongruent	gougue	go ug ue	1	0.7901	n/a	6	3	2	1
309.7425	0.2014	309.9439	1	lexical decision	99	pseudoword	congruent	guessier	gu e ss i er	1	0.6738	n/a	8	5	1.6	2
312.1201	0.2014	312.3215	1	lexical decision	100	word	incongruent	manchot	ma nc ho t	1	0.6751	1.89	7	4	1.75	2
314.4807	0.2013	314.682	1	lexical decision	101	word	congruent	ascension	a sc en s i on	1	0.6455	8.04	9	6	1.5	3
316.8596	0.2017	317.0613	1	lexical decision	102	pseudoword	congruent	édoulette	é d ou l ette	1	1.0775	n/a	9	6	1.5	3
319.521	0.2025	319.7235	1	lexical decision	103	word	congruent	ronronnant	r on r o nn ant	1	0.9022	0.81	10	6	1.667	3
321.9	0.2013	322.1013	1	lexical decision	104	pseudoword	incongruent	treussant	tre us sa n t	1	0.808	n/a	9	5	1.8	2
324.2685	0.2014	324.4699	1	lexical decision	105	pseudoword	congruent	beinf	b ein f	1	0.7946	n/a	5	3	1.667	1
326.9409	0.2015	327.1425	1	lexical decision	106	pseudoword	congruent	gachain	g a ch ain	1	0.809	n/a	7	4	1.75	2
329.2921	0.2015	329.4936	1	lexical decision	107	word	congruent	moussante	m ou ss an te	1	0.9429	0.61	9	5	1.8	2
331.6817	0.2015	331.8832	1	lexical decision	108	pseudoword	congruent	ingutient	in g u t i ent	1	0.8763	n/a	9	6	1.5	3
334.0084	0.2014	334.2098	1	lexical decision	109	pseudoword	incongruent	oufrence	o uf re n ce	1	0.8504	n/a	8	5	1.6	2
336.7197	0.2024	336.9221	1	lexical decision	110	word	incongruent	fondant	fo n da nt	1	0.6153	2.7	7	4	1.75	2
341.7063	0.2014	341.9078	1	lexical decision	111	pseudoword	incongruent	canvonant	ca nv o na n t	1	0.8005	n/a	9	6	1.5	3
344.048	0.2016	344.2497	1	lexical decision	112	word	congruent	souplesse	s ou p l esse	1	0.6487	9.86	9	6	1.5	2
349.0026	0.2024	349.205	1	lexical decision	113	word	congruent	oiseau	oi s eau	1	0.5672	113.04	6	4	1.5	2
351.6396	0.2016	351.8411	1	lexical decision	114	word	incongruent	enfance	e nfa nc e	1	0.5882	103.99	7	4	1.75	2
354.0217	0.2015	354.2232	1	lexical decision	115	word	incongruent	envieuse	e nv ie u se	1	0.622	1.76	8	5	1.6	2
356.3811	0.2015	356.5826	1	lexical decision	116	pseudoword	congruent	encheupée	en ch eu p ée	1	0.9916	n/a	9	5	1.8	3
358.7601	0.2016	358.9617	1	lexical decision	117	pseudoword	congruent	gangnière	g an gn i è re	1	1.4205	n/a	9	6	1.5	2
361.078	0.2015	361.2795	1	lexical decision	118	pseudoword	congruent	auvaid	au v aid	1	0.7705	n/a	6	3	2	2
363.3993	0.2016	363.6009	1	lexical decision	119	word	congruent	enchaînée	en ch aî n ée	1	0.6293	3.11	9	5	1.8	3
368.3819	0.2014	368.5832	1	lexical decision	120	pseudoword	congruent	angrause	an g r au se	1	1.1276	n/a	8	5	1.6	2
370.898376871821	5	375.898376871821	2	instructions reading aloud	n/a	n/a	n/a	n/a	n/a	n/a	n/a	n/a	n/a	n/a	n/a	n/a
381.0994	0.2023	381.3017	2	reading aloud	1	word	incongruent	vendange	ve n da n ge	0	n/a	3.38	8	5	1.6	2
383.8592	0.2017	384.0608	2	reading aloud	2	pseudoword	congruent	lausseur	l au ss eur	0	n/a	n/a	8	5	1.6	2
388.5416	0.2015	388.7431	2	reading aloud	3	pseudoword	incongruent	fantresse	fa nt re sse	1	0.8935	n/a	9	6	1.5	2
393.1818	0.202	393.3839	2	reading aloud	4	pseudoword	congruent	hossant	ho ss ant	1	0.8537	n/a	7	4	1.75	2
395.918	0.2015	396.1194	2	reading aloud	5	pseudoword	incongruent	poute	po ut e	1	0.7958	n/a	5	3	1.667	1
400.6806	0.2025	400.8831	2	reading aloud	6	word	incongruent	caisson	ca is so n	1	0.8777	3.04	7	4	1.75	2
405.3414	0.2015	405.5429	2	reading aloud	7	word	congruent	pamphlet	p am ph l et	1	1.0251	1.42	8	5	1.6	2
410.3823	0.202	410.5843	2	reading aloud	8	pseudoword	congruent	haurravant	hau rr a v ant	0	n/a	n/a	10	5	2	3
412.8187	0.2017	413.0204	2	reading aloud	9	word	congruent	étouffant	é t ou ff ant	1	0.9237	7.97	9	5	1.8	3
415.1775	0.2015	415.379	2	reading aloud	10	pseudoword	incongruent	plochant	p lo c ha nt	1	0.8613	n/a	8	5	1.6	2
417.557	0.2014	417.7583	2	reading aloud	11	pseudoword	congruent	retouffant	r e t ou ff ant	1	0.9075	n/a	10	6	1.667	3
420.3157	0.2013	420.517	2	reading aloud	12	pseudoword	congruent	élanffant	é l an ff ant	1	0.9562	n/a	9	5	1.8	3
422.6929	0.2012	422.8941	2	reading aloud	13	word	congruent	gain	g ain	1	0.8072	5.88	4	2	2	1
425.0749	0.2019	425.2768	2	reading aloud	14	word	congruent	emphase	em ph a se	1	0.7609	5.27	7	4	1.75	2
427.5359	0.2013	427.7372	2	reading aloud	15	word	congruent	douillet	d ou ill et	1	0.6912	6.96	8	4	2	2
429.9173	0.2015	430.1187	2	reading aloud	16	pseudoword	incongruent	chouse	c ho us e	0	n/a	n/a	6	3	2	1
432.6749	0.2021	432.877	2	reading aloud	17	word	incongruent	pendant	pe n da nt	1	0.7235	12.5	7	4	1.75	2
435.437	0.2014	435.6384	2	reading aloud	18	pseudoword	incongruent	embenche	e mbe nc he	1	0.7747	n/a	8	4	2	2
437.8195	0.2018	438.0212	2	reading aloud	19	word	incongruent	gourmande	go ur m a n de	1	0.7341	9.86	9	6	1.5	2
440.4782	0.2016	440.6798	2	reading aloud	20	word	congruent	fantaisie	f an t ai s ie	1	0.5797	16.89	9	6	1.5	3
442.8556	0.2015	443.057	2	reading aloud	21	word	congruent	aisance	ai s an ce	1	0.6517	15.41	7	4	1.75	2
445.2366	0.2014	445.438	2	reading aloud	22	word	congruent	chausson	ch au ss on	1	0.5877	5.95	8	4	2	2
450.0004	0.2021	450.2025	2	reading aloud	23	word	congruent	joueuse	j ou eu se	1	0.7065	19.86	7	4	1.75	1
452.3374	0.2014	452.5389	2	reading aloud	24	word	incongruent	chaudron	c ha ud ro n	1	0.6285	5.81	8	5	1.6	2
454.7111	0.2015	454.9126	2	reading aloud	25	word	congruent	émouvante	é m ou v an te	1	0.6527	14.05	9	6	1.5	3
457.3741	0.2023	457.5764	2	reading aloud	26	pseudoword	incongruent	cauffon	ca uf fo n	1	0.8549	n/a	7	4	1.75	2
460.0568	0.2026	460.2594	2	reading aloud	27	word	incongruent	endeuillée	e nde ui llé e	1	0.8206	1.35	10	5	2	3
462.4184	0.2018	462.6202	2	reading aloud	28	pseudoword	congruent	foncousie	f on c ou s ie	0	n/a	n/a	9	6	1.5	3
464.7956	0.2014	464.9971	2	reading aloud	29	pseudoword	congruent	neuquant	n eu qu ant	1	0.8699	n/a	8	4	2	2
467.1763	0.2015	467.3778	2	reading aloud	30	pseudoword	incongruent	embreince	e mb rei nc e	1	0.7249	n/a	9	5	1.8	2
469.9338	0.2013	470.1351	2	reading aloud	31	pseudoword	congruent	chougnon	ch ou gn on	0	n/a	n/a	8	4	2	2
472.3931	0.2013	472.5943	2	reading aloud	32	word	incongruent	poussin	po us si n	1	0.7682	3.04	7	4	1.75	2
475.0751	0.2018	475.2769	2	reading aloud	33	word	congruent	complainte	c om p l ain te	1	0.7138	2.3	10	6	1.667	2
477.5327	0.2014	477.7342	2	reading aloud	34	pseudoword	incongruent	pouchant	po uc ha nt	1	0.7034	n/a	8	4	2	2
480.2152	0.2014	480.4166	2	reading aloud	35	word	congruent	endeuillé	en d eu ill é	1	0.6734	1.35	9	5	1.8	3
485.1812	0.202	485.3831	2	reading aloud	36	word	incongruent	lendemain	le n de m ai n	1	0.8263	149.26	9	6	1.5	3
487.6153	0.2014	487.8167	2	reading aloud	37	pseudoword	congruent	pentouet	p en t ou et	0	n/a	n/a	8	5	1.6	2
489.9946	0.2015	490.196	2	reading aloud	38	word	congruent	échange	é ch an ge	1	0.6787	32.43	7	4	1.75	2
492.3742	0.2015	492.5756	2	reading aloud	39	pseudoword	incongruent	feuillate	fe u il lat e	1	0.5671	n/a	9	5	1.8	2
494.8348	0.2015	495.0363	2	reading aloud	40	pseudoword	congruent	raivement	r ai ve m ent	1	0.7271	n/a	9	6	1.5	3
497.5973	0.2016	497.7989	2	reading aloud	41	pseudoword	incongruent	choucetant	c ho uc e ta n t	1	1.4201	n/a	10	6	1.667	3
499.9772	0.2018	500.179	2	reading aloud	42	word	congruent	citrouille	c i t r ou ille	1	0.7276	2.91	10	6	1.667	2
502.6348	0.2014	502.8363	2	reading aloud	43	pseudoword	incongruent	condant	co nd an t	1	0.701	n/a	7	4	1.75	2
505.013	0.2014	505.2144	2	reading aloud	44	pseudoword	congruent	lointeau	l oin t eau	1	0.6764	n/a	8	5	1.6	2
507.6749	0.2015	507.8764	2	reading aloud	45	pseudoword	incongruent	ittamance	it ta ma n c e	0	n/a	n/a	9	6	1.5	3
510.0557	0.2018	510.2575	2	reading aloud	46	pseudoword	congruent	soichante	s oi ch an te	0	n/a	n/a	9	6	1.5	2
512.7137	0.2014	512.9152	2	reading aloud	47	word	congruent	saignant	s ai gn ant	1	0.5594	4.32	8	4	2	2
515.0944	0.2014	515.2958	2	reading aloud	48	word	congruent	dénouement	d é n oue m ent	0	n/a	4.05	10	6	1.667	3
517.7539	0.202	517.9558	2	reading aloud	49	pseudoword	incongruent	hompeule	ho m pe ule	0	n/a	n/a	8	4	2	2
520.1332	0.2013	520.3345	2	reading aloud	50	pseudoword	incongruent	taison	ta i so n	1	0.7757	n/a	6	4	1.5	2
527.1187	0.2014	527.3201	2	reading aloud	51	pseudoword	incongruent	aubluche	a ub l uc he	1	0.99	n/a	8	5	1.6	2
532.4122	0.2014	532.6136	2	reading aloud	52	pseudoword	incongruent	nange	na nge	1	0.7528	n/a	5	3	1.667	1
537.3562	0.2015	537.5577	2	reading aloud	53	word	incongruent	couteau	co ut ea u	1	0.6983	52.64	7	4	1.75	2
540.0932	0.2015	540.2947	2	reading aloud	54	word	incongruent	montant	mo n ta nt	1	0.6428	12.84	7	4	1.75	2
542.4734	0.2015	542.6749	2	reading aloud	55	pseudoword	incongruent	aucience	a uc ie n ce	1	0.7628	n/a	8	5	1.6	2
547.136	0.2015	547.3375	2	reading aloud	56	pseudoword	congruent	fourmand	f ou r m and	1	0.7607	n/a	8	5	1.6	2
549.773	0.2015	549.9745	2	reading aloud	57	word	congruent	ceinturon	c ein t u r on	1	0.7215	7.23	9	6	1.5	3
552.1518	0.2015	552.3533	2	reading aloud	58	pseudoword	incongruent	veincheur	v ei n c he ur	1	0.8744	n/a	9	5	1.8	2
554.5337	0.2014	554.7351	2	reading aloud	59	pseudoword	incongruent	sendampe	se n da mp e	0	n/a	n/a	8	5	1.6	2
556.8935	0.2014	557.0949	2	reading aloud	60	word	congruent	plongeant	p l on ge ant	1	0.838	1.28	9	5	1.8	2
561.8759	0.2015	562.0774	2	reading aloud	61	pseudoword	congruent	janguelle	j an gu elle	0	n/a	n/a	9	5	1.8	2
564.6124	0.2032	564.8156	2	reading aloud	62	pseudoword	incongruent	sourorant	so u r or a nt	0	n/a	n/a	9	6	1.5	3
566.9704	0.202	567.1724	2	reading aloud	63	pseudoword	congruent	anrouille	an r ou ille	1	0.9618	n/a	9	4	2.25	2
569.353	0.2016	569.5546	2	reading aloud	64	pseudoword	congruent	abanffant	a b an ff ant	0	n/a	n/a	9	5	1.8	3
574.312	0.2016	574.5136	2	reading aloud	65	pseudoword	congruent	raite	r ai te	1	0.7641	n/a	5	3	1.667	1
577.0492	0.2013	577.2505	2	reading aloud	66	word	incongruent	flambeau	f la mb ea u	1	0.7174	7.09	8	5	1.6	2
579.8078	0.2014	580.0091	2	reading aloud	67	pseudoword	incongruent	loutte	lo ut te	1	0.5906	n/a	6	3	2	1
582.1891	0.2014	582.3904	2	reading aloud	68	word	incongruent	conjoint	co n joi nt	1	0.6626	0.95	8	5	1.6	2
584.5723	0.2015	584.7738	2	reading aloud	69	word	congruent	chuchotant	ch u ch o t ant	1	0.6743	1.89	10	6	1.667	3
587.231	0.202	587.433	2	reading aloud	70	pseudoword	congruent	frouche	f r ou che	1	0.647	n/a	7	4	1.75	1
589.6104	0.2023	589.8127	2	reading aloud	71	word	congruent	beige	b ei ge	1	0.5648	8.11	5	3	1.667	1
591.9719	0.2014	592.1733	2	reading aloud	72	pseudoword	congruent	enteuvant	en t eu v ant	1	1.1369	n/a	9	5	1.8	3
594.3492	0.2015	594.5507	2	reading aloud	73	word	congruent	manteau	m an t eau	1	0.6972	68.11	7	4	1.75	2
597.1118	0.2018	597.3136	2	reading aloud	74	word	congruent	soignante	s oi gn an te	1	0.5941	0.27	9	6	1.5	2
604.0996	0.2016	604.3012	2	reading aloud	75	pseudoword	incongruent	chodouille	c ho do ui lle	0	n/a	n/a	10	5	2	2
606.5127	0.2014	606.7141	2	reading aloud	76	word	incongruent	mendiant	me n d ia nt	0	n/a	11.76	8	5	1.6	2
608.8713	0.2015	609.0728	2	reading aloud	77	word	congruent	touchante	t ou ch an te	1	0.6375	9.73	9	5	1.8	2
611.2499	0.2014	611.4514	2	reading aloud	78	pseudoword	incongruent	manviant	ma n v ia nt	0	n/a	n/a	8	5	1.6	2
614.0106	0.2017	614.2123	2	reading aloud	79	pseudoword	congruent	cêfrouille	c ê f r ou ille 	1	0.5349	n/a	10	6	1.667	2
616.688	0.2015	616.8895	2	reading aloud	80	word	incongruent	langue	la ng ue	1	0.5981	126.28	6	3	2	1
619.0498	0.202	619.2518	2	reading aloud	81	word	congruent	dépouille	d é p ou ille	1	0.6739	6.62	9	5	1.8	2
623.7307	0.2013	623.932	2	reading aloud	82	word	incongruent	jambe	ja mb e	1	0.6931	220.95	5	3	1.667	1
626.469	0.2014	626.6704	2	reading aloud	83	pseudoword	congruent	alaissée	a l ai ss ée	1	0.7398	n/a	8	5	1.6	3
628.9272	0.2013	629.1286	2	reading aloud	84	pseudoword	congruent	trinche	t r in che	1	0.7382	n/a	7	4	1.75	1
631.3065	0.2013	631.5078	2	reading aloud	85	pseudoword	congruent	tangein	t an ge in	1	0.6947	n/a	7	4	1.75	2
633.9687	0.2013	634.17	2	reading aloud	86	word	incongruent	soucoupe	so u co up e	1	0.7162	8.85	8	5	1.6	2
636.3512	0.2015	636.5526	2	reading aloud	87	word	congruent	pingouin	p in g ou in	1	0.7391	2.64	8	5	1.6	2
638.712	0.2015	638.9135	2	reading aloud	88	pseudoword	incongruent	beillement	b ei ll e me nt	1	0.8179	n/a	10	6	1.667	3
641.3888	0.2019	641.5907	2	reading aloud	89	word	incongruent	poumon	po um o n	1	0.7351	21.55	6	4	1.5	2
643.7512	0.2015	643.9527	2	reading aloud	90	pseudoword	incongruent	ennaitose	e nn a it o se	0	n/a	n/a	9	6	1.5	3
646.1263	0.2019	646.3282	2	reading aloud	91	pseudoword	congruent	chain	ch ain	1	0.7271	n/a	5	2	2.5	1
648.5076	0.202	648.7097	2	reading aloud	92	word	incongruent	essaim	e ssai m	1	0.7232	4.53	6	3	2	2
653.1706	0.2025	653.373	2	reading aloud	93	pseudoword	congruent	beuge	b eu ge	1	0.7065	n/a	5	3	1.667	1
658.2103	0.2015	658.4118	2	reading aloud	94	word	incongruent	chou	c ho u	1	0.5849	21.96	4	2	2	1
660.947	0.2014	661.1484	2	reading aloud	95	word	incongruent	bouchon	bo uc ho n	1	0.5812	14.46	7	4	1.75	2
665.9326	0.2016	666.1342	2	reading aloud	96	word	incongruent	auteur	a ut e ur	1	0.7365	41.89	6	4	1.5	2
668.6692	0.2021	668.8713	2	reading aloud	97	word	congruent	vengeance	v en ge an ce	1	0.6488	17.03	9	5	1.8	2
671.031	0.2015	671.2325	2	reading aloud	98	pseudoword	congruent	inchuitain	in ch u i t ain	1	0.7826	n/a	10	6	1.667	3
673.407	0.2014	673.6085	2	reading aloud	99	pseudoword	congruent	canreau	c an r eau	1	0.8073	n/a	7	4	1.75	2
675.767	0.2013	675.9683	2	reading aloud	100	pseudoword	congruent	aitance	ai t an ce	1	0.7228	n/a	7	4	1.75	2
678.4464	0.2013	678.6477	2	reading aloud	101	pseudoword	incongruent	ranfant	ra nf a nt	1	0.7237	n/a	7	4	1.75	2
681.1068	0.2018	681.3086	2	reading aloud	102	word	incongruent	gourmand	go ur m a nd	1	0.7009	9.86	8	5	1.6	2
688.693	0.2015	688.8945	2	reading aloud	103	word	incongruent	banquet	ba nq ue t	1	0.5951	5.88	7	4	1.75	2
691.0879	0.2016	691.2895	2	reading aloud	104	word	incongruent	douche	do uc he	1	0.6603	23.85	6	3	2	1
693.7654	0.2016	693.9669	2	reading aloud	105	pseudoword	incongruent	jinge	ji ng e	1	0.6358	n/a	5	3	1.667	1
696.1272	0.2014	696.3286	2	reading aloud	106	word	congruent	fourche	f ou r che	1	0.5282	8.18	7	4	1.75	1
700.812	0.2017	701.0137	2	reading aloud	107	word	incongruent	bouquet	bo uq ue t	1	0.6947	37.09	7	4	1.75	2
703.5435	0.2014	703.7449	2	reading aloud	108	word	congruent	champ	ch amp	1	0.5334	106.49	5	2	2.5	1
705.9062	0.2015	706.1077	2	reading aloud	109	word	congruent	coussin	c ou ss in	1	0.6926	22.7	7	4	1.75	2
710.8933	0.2015	711.0947	2	reading aloud	110	word	incongruent	souffrance	so u ff ra nc e	1	0.6979	47.16	10	6	1.667	2
713.3279	0.2015	713.5293	2	reading aloud	111	pseudoword	congruent	pouffler	p ou ff l er	1	0.7759	n/a	8	5	1.6	2
715.7056	0.2014	715.9071	2	reading aloud	112	word	incongruent	coût	co ût	1	0.7192	1.35	4	2	2	1
718.0658	0.2014	718.2672	2	reading aloud	113	pseudoword	congruent	nousse	n ou sse	1	0.6129	n/a	6	3	2	1
720.746	0.2017	720.9477	2	reading aloud	114	word	congruent	poignant	p oi gn ant	1	0.7599	6.22	8	5	1.6	2
723.1061	0.2015	723.3077	2	reading aloud	115	pseudoword	incongruent	bonlant	bo nl an t	1	0.7984	n/a	7	4	1.75	2
725.7853	0.2014	725.9867	2	reading aloud	116	word	incongruent	maillon	m ai llo n	1	0.6808	3.18	7	4	1.75	2
728.1448	0.2014	728.3462	2	reading aloud	117	pseudoword	incongruent	pambant	pa mb an t	0	n/a	n/a	7	4	1.75	2
730.5246	0.2013	730.7259	2	reading aloud	118	word	incongruent	encaisse	e nca is se	1	0.6934	0.2	8	4	2	2
732.8839	0.2013	733.0852	2	reading aloud	119	pseudoword	incongruent	chon	c ho n	1	0.5396	n/a	4	2	2	1
735.2638	0.2017	735.4655	2	reading aloud	120	word	incongruent	tendon	te n do n	1	0.7433	3.99	6	4	1.5	2
