onset	duration	offset	block	task	trial	lexicality	congruency	stimulus	stimulus_spaced	correct	response_time	word_freq	nb_letters	nb_phonemes	ratio	nb_syllables
0.250836287232232	5	5.25083628723223	5	instructions reading aloud	n/a	n/a	n/a	n/a	n/a	n/a	n/a	n/a	n/a	n/a	n/a	n/a
10.4278	0.2015	10.6293	5	reading aloud	1	word	incongruent	gain	gai n	1	0.6965	5.88	4	2	2	1
15.1989	0.2014	15.4003	5	reading aloud	2	pseudoword	incongruent	neuquant	ne uq ua nt	1	0.7884	n/a	8	4	2	2
17.5309	0.2014	17.7323	5	reading aloud	3	word	incongruent	occurrence	o c cu rre n ce	1	0.7803	7.43	10	6	1.667	3
19.9097	0.2018	20.1115	5	reading aloud	4	pseudoword	incongruent	maubeau	ma u bea u	1	0.8049	n/a	7	4	1.75	2
24.5757	0.2016	24.7773	5	reading aloud	5	word	congruent	enfance	en f an ce	1	0.6374	103.99	7	4	1.75	2
27.0359	0.2017	27.2376	5	reading aloud	6	pseudoword	incongruent	choucetant	c ho uc e ta n t	1	0.7585	n/a	10	6	1.667	3
31.6964	0.2028	31.8993	5	reading aloud	7	word	congruent	maillon	m a ill on	1	0.5785	3.18	7	4	1.75	2
36.7364	0.2015	36.9379	5	reading aloud	8	pseudoword	congruent	soichante	s oi ch an te	0	n/a	n/a	9	6	1.5	2
39.1699	0.2015	39.3714	5	reading aloud	9	pseudoword	congruent	ranfant	r an f ant	1	0.7771	n/a	7	4	1.75	2
41.5489	0.2015	41.7504	5	reading aloud	10	word	incongruent	quai	qua i	1	0.7	73.99	4	2	2	1
44.2093	0.2021	44.4114	5	reading aloud	11	word	incongruent	lambeau	la mb ea u	0	n/a	14.26	7	4	1.75	2
46.5913	0.2015	46.7928	5	reading aloud	12	word	congruent	manquement	m an qu e m ent	1	0.8372	1.55	10	6	1.667	3
49.2499	0.202	49.452	5	reading aloud	13	word	incongruent	oiseau	o is ea u	1	0.662	113.04	6	4	1.5	2
53.9365	0.2016	54.1382	5	reading aloud	14	word	congruent	intension	in t en s i on	1	0.6223	0	9	6	1.5	3
56.3724	0.2015	56.5739	5	reading aloud	15	word	incongruent	repoussant	r e po us sa nt	1	0.5778	2.57	10	6	1.667	3
61.6348	0.2014	61.8362	5	reading aloud	16	word	congruent	gourmande	g ou r m an de	1	0.6701	9.86	9	6	1.5	2
66.6721	0.2013	66.8734	5	reading aloud	17	pseudoword	congruent	fenteau	f en t eau	1	0.7151	n/a	7	4	1.75	2
69.407	0.2014	69.6084	5	reading aloud	18	pseudoword	congruent	paisin	p ai s in	1	0.8431	n/a	6	4	1.5	2
71.79	0.2013	71.9913	5	reading aloud	19	pseudoword	congruent	sengeonie	s en ge o n ie	0	n/a	n/a	9	6	1.5	3
74.4522	0.2018	74.654	5	reading aloud	20	word	incongruent	chouquette	c ho uq ue tte	1	0.6051	0.07	10	5	2	2
76.8298	0.2015	77.0313	5	reading aloud	21	pseudoword	incongruent	auvaid	a uva id	0	n/a	n/a	6	3	2	2
82.0952	0.2015	82.2967	5	reading aloud	22	pseudoword	congruent	mouquetant	m ou qu e t ant	1	0.6362	n/a	10	6	1.667	3
84.4278	0.202	84.6298	5	reading aloud	23	pseudoword	incongruent	haumeur	ha ume ur	1	0.7708	n/a	7	4	1.75	2
86.807	0.2015	87.0085	5	reading aloud	24	pseudoword	incongruent	aivant	a iva nt	1	0.7637	n/a	6	3	2	2
89.4689	0.2015	89.6704	5	reading aloud	25	word	incongruent	fantaisie	fa n ta i si e	1	0.7149	16.89	9	6	1.5	3
94.1527	0.2015	94.3542	5	reading aloud	26	pseudoword	congruent	canvonant	c an v o nant	1	1.0023	n/a	9	6	1.5	3
96.5897	0.2026	96.7923	5	reading aloud	27	pseudoword	incongruent	conteilant	co n te i la nt	0	n/a	n/a	10	6	1.667	3
98.9682	0.2018	99.17	5	reading aloud	28	pseudoword	congruent	anrouille	an r ou ille	1	0.7359	n/a	9	4	2.25	2
101.3295	0.2015	101.531	5	reading aloud	29	word	congruent	engouement	en g oue m ent	0	n/a	1.55	10	5	2	3
104.0092	0.2017	104.2109	5	reading aloud	30	word	incongruent	touchant	to uc ha nt	1	0.8042	9.73	8	4	2	2
106.3677	0.2015	106.5692	5	reading aloud	31	pseudoword	incongruent	châssin	c hâ ssi n	0	n/a	n/a	7	4	1.75	2
111.0515	0.2016	111.2531	5	reading aloud	32	word	incongruent	aimant	a ima nt	1	0.7045	2.97	6	3	2	2
113.4877	0.2027	113.6904	5	reading aloud	33	pseudoword	congruent	taillance	t a ill an ce	0	n/a	n/a	9	5	1.8	2
115.8662	0.2013	116.0675	5	reading aloud	34	word	incongruent	saison	sa i so n	1	0.8951	49.59	6	4	1.5	2
120.5301	0.2016	120.7317	5	reading aloud	35	pseudoword	incongruent	lonteau	lo nt ea u	1	0.8096	n/a	7	4	1.75	2
123.2685	0.2014	123.4699	5	reading aloud	36	pseudoword	congruent	sonffreite	s on ff r ei te	0	n/a	n/a	10	6	1.667	2
125.9462	0.2016	126.1478	5	reading aloud	37	word	congruent	néant	n é ant	1	0.8145	23.99	5	3	1.667	2
128.3068	0.2017	128.5085	5	reading aloud	38	pseudoword	congruent	enreinte	en r ein te	1	0.8034	n/a	8	4	2	2
130.9873	0.2022	131.1895	5	reading aloud	39	word	congruent	nouveau	n ou v eau	1	0.6653	292.43	7	4	1.75	2
133.749	0.202	133.951	5	reading aloud	40	word	congruent	innocence	i nn o c en ce	1	0.803	20	9	6	1.5	3
136.1245	0.2021	136.3265	5	reading aloud	41	pseudoword	incongruent	cain	ca in	1	0.6738	n/a	4	2	2	1
138.4857	0.2022	138.6879	5	reading aloud	42	word	congruent	agneau	a gn eau	1	0.6829	8.78	6	3	2	2
141.1672	0.2016	141.3688	5	reading aloud	43	pseudoword	incongruent	érainpant	é rai n pa nt	1	0.7611	n/a	9	5	1.8	3
148.4344	0.2025	148.637	5	reading aloud	44	pseudoword	incongruent	fanseuil	fa ns e ui l	1	0.6935	n/a	8	5	1.6	2
150.8478	0.2016	151.0494	5	reading aloud	45	pseudoword	congruent	intampieau	in t am p i eau	0	n/a	n/a	10	6	1.667	3
153.2043	0.2018	153.4061	5	reading aloud	46	pseudoword	congruent	aite	ai te	1	0.7084	n/a	4	2	2	1
155.8863	0.202	156.0883	5	reading aloud	47	word	incongruent	maintien	m ai n ti en	0	n/a	10.14	8	5	1.6	2
158.5457	0.2015	158.7472	5	reading aloud	48	pseudoword	incongruent	baiffier	ba if f ie r	1	0.801	n/a	8	5	1.6	2
160.9251	0.2015	161.1266	5	reading aloud	49	word	incongruent	humain	hu mai n	1	0.5885	111.55	6	3	2	2
163.588	0.2014	163.7894	5	reading aloud	50	pseudoword	incongruent	orrigninse	o r ri gni n se	0	n/a	n/a	10	6	1.667	3
165.9626	0.2018	166.1643	5	reading aloud	51	pseudoword	incongruent	quau	qua u	1	0.7346	n/a	4	2	2	1
168.3263	0.2013	168.5277	5	reading aloud	52	word	incongruent	maîtresse	ma ît re s se	1	0.6703	53.92	9	6	1.5	2
171.0064	0.2014	171.2078	5	reading aloud	53	word	congruent	balluchon	b a ll u ch on	1	0.7261	0.54	9	6	1.5	3
176.0678	0.2017	176.2694	5	reading aloud	54	pseudoword	congruent	beuillant	b eu ill ant	1	0.6395	n/a	9	4	2.25	2
181.1079	0.2015	181.3094	5	reading aloud	55	word	incongruent	auvent	a uve nt	1	0.585	6.89	6	3	2	2
186.4492	0.2016	186.6508	5	reading aloud	56	word	congruent	enceinte	en c ein te	1	0.6887	12.43	8	4	2	2
188.8849	0.2016	189.0865	5	reading aloud	57	pseudoword	congruent	douvant	d ou v ant	1	0.5987	n/a	7	4	1.75	2
191.5658	0.202	191.7678	5	reading aloud	58	word	congruent	penseuse	p en s eu se	1	0.751	3.92	8	5	1.6	2
196.2271	0.2015	196.4286	5	reading aloud	59	pseudoword	incongruent	bauillet	ba ui lle t	1	0.8205	n/a	8	4	2	2
198.9665	0.2015	199.168	5	reading aloud	60	word	incongruent	gourmand	go ur m a nd	1	0.6178	9.86	8	5	1.6	2
201.3435	0.2015	201.545	5	reading aloud	61	pseudoword	congruent	queute	qu eu te	1	0.6683	n/a	6	3	2	1
203.7048	0.2025	203.9073	5	reading aloud	62	pseudoword	congruent	aitance	ai t an ce	1	0.6738	n/a	7	4	1.75	2
206.3846	0.2015	206.5861	5	reading aloud	63	word	congruent	quinte	qu in te	1	0.6329	4.86	6	3	2	1
208.7459	0.2017	208.9476	5	reading aloud	64	word	congruent	euphorie	eu ph o r ie	1	0.6432	8.11	8	5	1.6	3
211.123	0.2017	211.3246	5	reading aloud	65	pseudoword	incongruent	maisance	ma i sa n ce	0	n/a	n/a	8	5	1.6	2
213.5024	0.2014	213.7038	5	reading aloud	66	pseudoword	congruent	nonte	n on te	1	0.7758	n/a	5	3	1.667	1
215.8643	0.2015	216.0658	5	reading aloud	67	pseudoword	incongruent	incerdant	i nc e rd a nt	1	0.7417	n/a	9	6	1.5	3
218.5456	0.2014	218.747	5	reading aloud	68	pseudoword	incongruent	soncieuse	so nc ie u s e	0	n/a	n/a	9	6	1.5	2
221.3019	0.2013	221.5032	5	reading aloud	69	word	incongruent	vaisselle	va i sse lle	1	0.5766	25.95	9	5	1.8	2
223.7622	0.2013	223.9635	5	reading aloud	70	pseudoword	congruent	dallin	d a ll in	1	0.7303	n/a	6	4	1.5	2
226.4451	0.2016	226.6467	5	reading aloud	71	pseudoword	incongruent	chodouille	c ho do ui lle	0	n/a	n/a	10	5	2	2
231.4103	0.202	231.6124	5	reading aloud	72	word	congruent	desséchant	d e ss é ch ant	1	0.7021	0.2	10	6	1.667	3
234.1472	0.2016	234.3488	5	reading aloud	73	word	incongruent	bâillement	b âi ll e me nt	1	0.6522	4.19	10	6	1.667	3
236.5236	0.2015	236.7251	5	reading aloud	74	pseudoword	congruent	eussopie	eu ss o p ie	1	0.5889	n/a	8	5	1.6	3
238.8823	0.2015	239.0838	5	reading aloud	75	pseudoword	incongruent	choutre	c ho ut re	1	0.7185	n/a	7	4	1.75	1
241.2633	0.2015	241.4648	5	reading aloud	76	pseudoword	congruent	deuillou	d eu ill ou	1	0.7856	n/a	8	4	2	2
243.6416	0.202	243.8436	5	reading aloud	77	pseudoword	congruent	hulour	hu l our	1	0.6241	n/a	6	4	1.5	2
248.606	0.2018	248.8079	5	reading aloud	78	word	congruent	embout	em b out	1	0.6411	0.81	6	3	2	2
250.946	0.2017	251.1477	5	reading aloud	79	word	incongruent	saignement	sa ig n em e nt	1	0.5651	0.54	10	6	1.667	3
255.6279	0.2017	255.8296	5	reading aloud	80	word	congruent	poumon	p ou m on	1	0.6744	21.55	6	4	1.5	2
258.0639	0.2015	258.2654	5	reading aloud	81	word	congruent	champignon	ch am p i gn on	1	0.5669	12.97	10	6	1.667	3
260.443	0.2015	260.6445	5	reading aloud	82	word	incongruent	rangement	ra ng e me nt	1	0.7333	2.16	9	6	1.5	3
262.8012	0.2015	263.0027	5	reading aloud	83	pseudoword	incongruent	pausson	pa us so n	1	0.6412	n/a	7	4	1.75	2
265.1808	0.2013	265.382	5	reading aloud	84	word	incongruent	bouillon	bo ui llo n	1	0.7034	8.92	8	4	2	2
267.5403	0.2018	267.7421	5	reading aloud	85	pseudoword	incongruent	pentouet	pe n to ue t	1	0.6538	n/a	8	5	1.6	2
269.9204	0.2014	270.1218	5	reading aloud	86	word	congruent	enseignant	en s ei gn ant	1	0.6409	1.69	10	5	2	3
272.3612	0.2013	272.5625	5	reading aloud	87	pseudoword	incongruent	raivement	ra iv e me nt	1	0.6758	n/a	9	6	1.5	3
274.7606	0.2013	274.962	5	reading aloud	88	word	incongruent	ouvrant	o uv ra nt	1	0.6173	3.18	7	4	1.75	2
277.4215	0.2024	277.6239	5	reading aloud	89	word	incongruent	chambre	c ha mb re	1	0.5126	413.31	7	4	1.75	1
279.802	0.2017	280.0037	5	reading aloud	90	word	incongruent	amphore	a mp ho re	1	0.6636	1.35	7	4	1.75	2
282.1818	0.2017	282.3835	5	reading aloud	91	word	congruent	humour	hu m ou r	1	0.6299	16.76	6	4	1.5	2
284.9412	0.202	285.1432	5	reading aloud	92	word	congruent	fourneau	f ou r n eau	1	0.6353	15.34	8	5	1.6	2
287.3203	0.2018	287.5221	5	reading aloud	93	word	congruent	fourreau	f ou rr eau	1	0.5884	4.32	8	4	2	2
292.2855	0.2033	292.4888	5	reading aloud	94	word	incongruent	plaine	p la i ne	1	0.6644	39.86	6	4	1.5	1
294.722	0.2015	294.9236	5	reading aloud	95	word	congruent	andouille	an d ou ille	1	0.6995	6.28	9	4	2.25	2
297.0987	0.2015	297.3002	5	reading aloud	96	word	incongruent	banquet	ba nq ue t	1	0.6678	5.88	7	4	1.75	2
299.8575	0.2016	300.0591	5	reading aloud	97	pseudoword	incongruent	nange	na nge	1	0.6969	n/a	5	3	1.667	1
304.9253	0.2016	305.1269	5	reading aloud	98	word	incongruent	audience	a ud ie n ce	1	0.5995	9.53	8	5	1.6	2
307.6611	0.2016	307.8628	5	reading aloud	99	pseudoword	incongruent	coupeiller	co u p ei lle r	1	0.6897	n/a	10	6	1.667	3
312.3439	0.2022	312.5461	5	reading aloud	100	pseudoword	congruent	mougnette	m ou gn ette	1	0.5018	n/a	9	5	1.8	2
314.7808	0.2015	314.9823	5	reading aloud	101	word	congruent	souffrance	s ou ff r an ce	1	0.7253	47.16	10	6	1.667	2
317.4606	0.2014	317.662	5	reading aloud	102	word	congruent	braille	b r a ille	1	0.6739	0.47	7	4	1.75	1
320.2199	0.2013	320.4212	5	reading aloud	103	word	congruent	empreinte	em p r ein te	1	0.6589	15.61	9	5	1.8	2
322.5977	0.2013	322.7989	5	reading aloud	104	pseudoword	incongruent	semphle	se mp hl e	1	0.6777	n/a	7	4	1.75	1
324.9607	0.2014	325.1621	5	reading aloud	105	pseudoword	incongruent	intratait	i nt ra ta i t	0	n/a	n/a	9	6	1.5	3
327.3409	0.2017	327.5426	5	reading aloud	106	pseudoword	incongruent	sougnemain	so ug n em a in	1	0.7278	n/a	10	6	1.667	3
329.7039	0.2018	329.9057	5	reading aloud	107	pseudoword	congruent	détouenant	d é t oue n ant	1	0.8415	n/a	10	6	1.667	3
332.3824	0.2026	332.585	5	reading aloud	108	word	congruent	quinzaine	qu in z ai ne	1	0.6669	11.89	9	5	1.8	2
337.3407	0.2016	337.5423	5	reading aloud	109	word	congruent	aire	ai re	1	0.6398	5.14	4	2	2	1
339.6798	0.2016	339.8814	5	reading aloud	110	word	incongruent	chapeau	c ha pea u	1	0.5867	88.04	7	4	1.75	2
342.0609	0.2015	342.2623	5	reading aloud	111	word	incongruent	pingouin	pi n go ui n	1	0.6878	2.64	8	5	1.6	2
344.4391	0.2015	344.6407	5	reading aloud	112	pseudoword	congruent	engourrant	en g ou rr ant	1	0.6944	n/a	10	5	2	3
346.8979	0.2023	347.1001	5	reading aloud	113	pseudoword	incongruent	gainple	ga i np le	1	0.7576	n/a	7	4	1.75	1
349.2786	0.2016	349.4803	5	reading aloud	114	pseudoword	congruent	taison	t ai s on	0	n/a	n/a	6	4	1.5	2
351.6384	0.2016	351.84	5	reading aloud	115	pseudoword	congruent	frangne	f r an gne	0	n/a	n/a	7	4	1.75	1
354.3197	0.2017	354.5214	5	reading aloud	116	pseudoword	congruent	innalence	i nn a l en ce	0	n/a	n/a	9	6	1.5	3
356.9782	0.2022	357.1804	5	reading aloud	117	word	congruent	dansant	d an s ant	1	0.6951	6.89	7	4	1.75	2
359.3587	0.2017	359.5604	5	reading aloud	118	pseudoword	congruent	blondeau	b l on d eau	1	0.7625	n/a	8	5	1.6	2
362.0195	0.2015	362.221	5	reading aloud	119	pseudoword	congruent	chanffaim	ch an ff aim	0	n/a	n/a	9	5	1.8	2
364.4004	0.2016	364.602	5	reading aloud	120	word	incongruent	chancelant	c ha n ce la nt	1	0.6512	2.23	10	6	1.667	3
392.409457520019	5	397.409457520019	6	instructions lexical decision	n/a	n/a	n/a	n/a	n/a	n/a	n/a	n/a	n/a	n/a	n/a	n/a
402.6344	0.2018	402.8361	6	lexical decision	1	pseudoword	incongruent	hossant	hos sa nt	1	0.8055	n/a	7	4	1.75	2
405.2951	0.2015	405.4966	6	lexical decision	2	word	incongruent	honneur	hon ne ur	1	0.5418	97.36	7	4	1.75	2
414.8901	0.2023	415.0924	6	lexical decision	3	pseudoword	incongruent	couvoeur	co u vo e ur	1	0.7607	n/a	8	5	1.6	2
417.257	0.2023	417.4593	6	lexical decision	4	pseudoword	congruent	vanrreau	v an rr eau	1	0.7468	n/a	8	4	2	2
419.9356	0.2017	420.1373	6	lexical decision	5	pseudoword	incongruent	moupeau	mo u pea u	1	0.536	n/a	7	4	1.75	2
427.2058	0.2025	427.4082	6	lexical decision	6	word	congruent	chuchotant	ch u ch o t ant	1	0.7608	1.89	10	6	1.667	3
429.6158	0.2022	429.818	6	lexical decision	7	word	incongruent	humeur	h um e ur	1	0.5987	58.04	6	4	1.5	2
432.2758	0.2015	432.4773	6	lexical decision	8	word	incongruent	jambe	ja mb e	1	0.7038	220.95	5	3	1.667	1
434.6569	0.202	434.8589	6	lexical decision	9	word	congruent	troupeau	t r ou p eau	1	0.5576	25.54	8	5	1.6	2
439.3194	0.2016	439.521	6	lexical decision	10	word	incongruent	rancoeur	ra n co e ur	1	0.573	6.15	8	5	1.6	2
441.7165	0.2017	441.9182	6	lexical decision	11	pseudoword	incongruent	sonfflant	so nf fl a nt	1	0.6348	n/a	9	5	1.8	2
446.6388	0.2015	446.8403	6	lexical decision	12	word	congruent	enchaînée	en ch aî n ée	1	0.5854	3.11	9	5	1.8	3
448.9763	0.2013	449.1776	6	lexical decision	13	word	congruent	baleineau	b a l ei n eau	1	0.936	0	9	6	1.5	3
451.3544	0.2013	451.5557	6	lexical decision	14	word	congruent	poulain	p ou l ain	1	0.5768	3.78	7	4	1.75	2
456.3198	0.2021	456.5218	6	lexical decision	15	pseudoword	congruent	ascenmien	a sc en m i en	1	0.8883	n/a	9	6	1.5	3
458.7299	0.2016	458.9315	6	lexical decision	16	word	congruent	chaudron	ch au d r on	1	0.6182	5.81	8	5	1.6	2
461.4359	0.2021	461.638	6	lexical decision	17	word	congruent	arrangeant	a rr an ge ant	1	1.3681	0.47	10	5	2	3
463.7931	0.2015	463.9946	6	lexical decision	18	word	incongruent	heureuse	he u re use	1	0.5999	190	8	4	2	2
466.1733	0.2022	466.3756	6	lexical decision	19	word	congruent	beignet	b ei gn et	1	0.5747	2.77	7	4	1.75	2
471.1602	0.2017	471.3618	6	lexical decision	20	word	incongruent	branche	b ra nc he	1	0.6418	85.61	7	4	1.75	1
473.5448	0.2014	473.7463	6	lexical decision	21	word	incongruent	échange	éc ha ng e	1	0.575	32.43	7	4	1.75	2
478.258	0.2015	478.4595	6	lexical decision	22	word	congruent	couchette	c ou ch ette	1	1.0678	6.28	9	5	1.8	2
480.6392	0.2015	480.8407	6	lexical decision	23	pseudoword	incongruent	dapheau	da p hea u	1	0.7315	n/a	7	4	1.75	2
482.974	0.2017	483.1756	6	lexical decision	24	pseudoword	incongruent	frouche	f ro uc he	1	0.9077	n/a	7	4	1.75	1
485.3276	0.2016	485.5292	6	lexical decision	25	pseudoword	incongruent	enssête	e ns sêt e	1	0.7261	n/a	7	4	1.75	2
488.0144	0.2016	488.216	6	lexical decision	26	pseudoword	incongruent	fendéanre	fe nd é a nr e	1	0.9392	n/a	9	6	1.5	3
490.3846	0.2021	490.5867	6	lexical decision	27	pseudoword	incongruent	mégnant	m ég na nt	1	1.0099	n/a	7	4	1.75	2
492.7528	0.2015	492.9544	6	lexical decision	28	word	incongruent	chaud	c ha ud	1	0.6498	113.31	5	2	2.5	1
495.133	0.2013	495.3343	6	lexical decision	29	pseudoword	congruent	traichant	t r ai ch ant	0	0.8705	n/a	9	5	1.8	2
497.4929	0.2015	497.6944	6	lexical decision	30	pseudoword	incongruent	chéluneur	c hé l un eu r	1	0.7507	n/a	9	6	1.5	3
499.8721	0.2014	500.0735	6	lexical decision	31	pseudoword	incongruent	croiffend	c ro if fe nd	1	0.7454	n/a	9	6	1.5	2
502.2516	0.2016	502.4532	6	lexical decision	32	pseudoword	congruent	guessier	gu e ss i er	1	0.8258	n/a	8	5	1.6	2
504.6137	0.2015	504.8152	6	lexical decision	33	word	congruent	lionceau	l i on c eau	1	0.7906	1.01	8	5	1.6	2
507.3231	0.2017	507.5247	6	lexical decision	34	word	incongruent	franche	f ra nc he	0	1.0792	23.45	7	4	1.75	1
509.6518	0.2016	509.8534	6	lexical decision	35	word	incongruent	enquête	e nq uêt e	1	0.6686	21.28	7	4	1.75	2
512.3324	0.2017	512.5341	6	lexical decision	36	word	incongruent	faisceau	fa is cea u	1	0.6389	10	8	4	2	2
514.9909	0.2021	515.193	6	lexical decision	37	pseudoword	congruent	aupoune	au p ou ne	1	0.7104	n/a	7	4	1.75	2
517.6522	0.2016	517.8538	6	lexical decision	38	pseudoword	incongruent	bronguille	b ro ng ui lle	1	0.7101	n/a	10	6	1.667	2
520.0346	0.2015	520.2361	6	lexical decision	39	pseudoword	congruent	sourorant	s ou r o r ant	1	0.6977	n/a	9	6	1.5	3
522.6951	0.2026	522.8976	6	lexical decision	40	pseudoword	incongruent	ceinritin	c ei nr i ti n	1	0.6761	n/a	9	6	1.5	3
525.3765	0.2016	525.5781	6	lexical decision	41	word	incongruent	souterrain	so u t err ai n	1	0.6376	13.04	10	6	1.667	3
527.7322	0.2016	527.9337	6	lexical decision	42	word	incongruent	couffin	co uf fi n	1	0.934	1.96	7	4	1.75	2
532.7158	0.2016	532.9174	6	lexical decision	43	pseudoword	congruent	encheupée	en ch eu p ée	1	0.7843	n/a	9	5	1.8	3
537.3547	0.202	537.5566	6	lexical decision	44	pseudoword	incongruent	assagnin	as sa gni n	1	1.3172	n/a	8	5	1.6	3
539.9912	0.202	540.1932	6	lexical decision	45	word	congruent	reine	r ei ne	1	0.8417	33.78	5	3	1.667	1
542.3393	0.202	542.5413	6	lexical decision	46	word	incongruent	haineuse	ha ine us e	1	0.6025	6.42	8	4	2	2
544.7312	0.2015	544.9327	6	lexical decision	47	word	congruent	guerrier	gu e rr i er	1	0.6257	10	8	5	1.6	2
547.1116	0.2014	547.3129	6	lexical decision	48	pseudoword	incongruent	éphouce	ép ho uc e	1	0.6462	n/a	7	4	1.75	2
549.4787	0.2013	549.6801	6	lexical decision	49	word	congruent	phalange	ph a l an ge	1	1.0291	5.2	8	5	1.6	2
552.1492	0.2013	552.3505	6	lexical decision	50	pseudoword	congruent	phadeuge	ph a d eu ge	1	0.6584	n/a	8	5	1.6	2
554.5282	0.2013	554.7294	6	lexical decision	51	word	incongruent	pendant	pe n da nt	1	0.7056	12.5	7	4	1.75	2
557.1861	0.2017	557.3877	6	lexical decision	52	pseudoword	incongruent	roeud	ro eud	1	0.7075	n/a	5	2	2.5	1
562.1141	0.202	562.3161	6	lexical decision	53	word	congruent	impatient	im p a t i ent	1	1.0505	16.76	9	6	1.5	3
567.0952	0.2016	567.2968	6	lexical decision	54	pseudoword	congruent	ittamance	i tt a m an ce	1	0.6023	n/a	9	6	1.5	3
569.5069	0.2029	569.7098	6	lexical decision	55	word	incongruent	langue	la ng ue	1	0.5705	126.28	6	3	2	1
574.2165	0.2016	574.4181	6	lexical decision	56	word	congruent	complainte	c om p l ain te	1	0.9188	2.3	10	6	1.667	2
576.5541	0.2017	576.7558	6	lexical decision	57	word	incongruent	vainqueur	v ai n q ue ur	1	0.6133	11.35	9	5	1.8	2
578.9322	0.2015	579.1337	6	lexical decision	58	word	congruent	cinglant	c in g l ant	1	0.6951	2.77	8	5	1.6	2
581.5914	0.2015	581.7929	6	lexical decision	59	pseudoword	congruent	tronchalle	t r on ch a lle	1	0.7349	n/a	10	6	1.667	2
583.9688	0.2015	584.1702	6	lexical decision	60	word	incongruent	dessein	de s sei n	1	0.6904	14.86	7	4	1.75	2
588.9342	0.2015	589.1357	6	lexical decision	61	pseudoword	congruent	mougnant	m ou gn ant	1	0.639	n/a	8	4	2	2
591.5703	0.2017	591.772	6	lexical decision	62	pseudoword	incongruent	maissanle	ma is sa nl e	1	0.7108	n/a	9	5	1.8	2
596.5537	0.2025	596.7562	6	lexical decision	63	pseudoword	incongruent	canchin	ca nc hi n	1	0.6374	n/a	7	4	1.75	2
599.1901	0.2013	599.3914	6	lexical decision	64	word	congruent	rencontre	r en c on t re	1	0.6959	81.76	9	6	1.5	2
601.5053	0.2014	601.7067	6	lexical decision	65	word	incongruent	encombrant	e nco m b ra nt	1	0.7167	6.08	10	6	1.667	3
604.1271	0.202	604.3291	6	lexical decision	66	pseudoword	congruent	bonlant	b on l ant	1	0.6647	n/a	7	4	1.75	2
606.5033	0.2013	606.7046	6	lexical decision	67	word	incongruent	dauphin	da up hi n	1	1.0427	11.82	7	4	1.75	2
609.1658	0.202	609.3677	6	lexical decision	68	pseudoword	congruent	haumoût	hau m oût	1	0.7271	n/a	7	3	2.333	2
611.5338	0.2015	611.7353	6	lexical decision	69	pseudoword	congruent	vrein	v r ein	1	0.8681	n/a	5	3	1.667	1
613.9118	0.2016	614.1134	6	lexical decision	70	pseudoword	incongruent	ovougeade	o vo u g ea de	1	0.694	n/a	9	6	1.5	3
616.2624	0.2017	616.464	6	lexical decision	71	word	congruent	enchanteur	en ch an t eur	1	0.6244	2.64	10	6	1.667	3
618.6471	0.2016	618.8488	6	lexical decision	72	word	congruent	bleuet	b l eu et	1	0.6936	1.22	6	4	1.5	2
621.0305	0.2017	621.2321	6	lexical decision	73	pseudoword	congruent	pouffler	p ou ff l er	1	0.8312	n/a	8	5	1.6	2
623.6902	0.2014	623.8916	6	lexical decision	74	word	congruent	tranchant	t r an ch ant	1	0.7275	5.27	9	5	1.8	2
626.3678	0.2019	626.5697	6	lexical decision	75	pseudoword	incongruent	brouche	b ro uc he	1	0.7897	n/a	7	4	1.75	1
629.0291	0.2016	629.2307	6	lexical decision	76	pseudoword	incongruent	enquandée	e nq ua ndé e	1	0.8875	n/a	9	5	1.8	3
631.645	0.2018	631.8468	6	lexical decision	77	word	congruent	quignon	qu i gn on	1	0.9255	2.43	7	4	1.75	2
633.9725	0.2015	634.1741	6	lexical decision	78	pseudoword	incongruent	constaige	co n s ta i ge	1	0.835	n/a	9	6	1.5	2
636.3543	0.2016	636.5559	6	lexical decision	79	pseudoword	congruent	blauche	b l au che	1	0.8801	n/a	7	4	1.75	1
641.0102	0.2015	641.2117	6	lexical decision	80	pseudoword	congruent	chaimmant	ch ai mm ant	1	0.7751	n/a	9	4	2.25	2
645.951	0.2015	646.1525	6	lexical decision	81	pseudoword	congruent	tougne	t ou gne	1	0.6143	n/a	6	3	2	1
648.6166	0.2016	648.8182	6	lexical decision	82	pseudoword	congruent	échille	é ch ille	1	0.6517	n/a	7	4	1.75	2
650.9665	0.2013	651.1678	6	lexical decision	83	pseudoword	congruent	enquanseur	en qu an s eur	1	0.9087	n/a	10	6	1.667	3
655.9612	0.2015	656.1627	6	lexical decision	84	word	incongruent	caillou	c ai llo u	1	0.661	38.58	7	4	1.75	2
658.3123	0.2013	658.5136	6	lexical decision	85	pseudoword	incongruent	caillon	c ai llo n	1	1.1536	n/a	7	4	1.75	2
660.6466	0.2022	660.8487	6	lexical decision	86	word	congruent	mouvement	m ou v e m ent	1	0.8146	182.97	9	6	1.5	3
663.0264	0.2021	663.2285	6	lexical decision	87	pseudoword	congruent	condein	c on d ein	1	1.0936	n/a	7	4	1.75	2
665.3496	0.2015	665.5511	6	lexical decision	88	pseudoword	congruent	désaint	d é s aint	1	0.9295	n/a	7	4	1.75	2
667.9661	0.2014	668.1675	6	lexical decision	89	word	incongruent	avant	a va nt	1	0.7389	21.35	5	3	1.667	2
670.3433	0.2016	670.5448	6	lexical decision	90	pseudoword	incongruent	tanleau	ta n le au	1	0.6907	n/a	7	4	1.75	2
672.7059	0.2016	672.9075	6	lexical decision	91	pseudoword	congruent	seuge	s eu ge	1	0.665	n/a	5	3	1.667	1
675.1083	0.2021	675.3103	6	lexical decision	92	word	incongruent	instance	i ns ta n ce	1	0.5845	4.59	8	5	1.6	2
677.7457	0.2019	677.9476	6	lexical decision	93	word	incongruent	champagne	c ha mp ag ne	1	0.7112	29.86	9	5	1.8	2
680.0823	0.2015	680.2838	6	lexical decision	94	pseudoword	incongruent	souperrant	so u p err a nt	1	0.8225	n/a	10	6	1.667	3
682.4856	0.2017	682.6873	6	lexical decision	95	word	congruent	chauffant	ch au ff ant	1	0.5352	0.41	9	4	2.25	2
684.865	0.2023	685.0672	6	lexical decision	96	word	incongruent	plainte	pl ai n te	1	0.6967	26.69	7	4	1.75	1
687.525	0.2015	687.7265	6	lexical decision	97	word	incongruent	trentaine	tre n ta in e	1	0.9738	13.45	9	6	1.5	2
690.2186	0.2017	690.4203	6	lexical decision	98	word	incongruent	couteau	co ut ea u	1	0.897	52.64	7	4	1.75	2
695.1715	0.2015	695.3731	6	lexical decision	99	pseudoword	incongruent	noussante	no us sa n te	1	0.722	n/a	9	5	1.8	2
697.5039	0.2015	697.7054	6	lexical decision	100	word	congruent	souhait	s ou hait	1	0.7197	8.65	7	3	2.333	1
699.8867	0.2014	700.0881	6	lexical decision	101	pseudoword	congruent	trambeau	t r am b eau	1	0.8118	n/a	8	5	1.6	2
702.5451	0.2013	702.7464	6	lexical decision	102	word	incongruent	chausson	cha u sso n	1	1.1934	5.95	8	4	2	2
707.1939	0.2013	707.3953	6	lexical decision	103	pseudoword	congruent	ingutient	in g u t i ent	1	0.7084	n/a	9	6	1.5	3
709.8631	0.2013	710.0644	6	lexical decision	104	word	congruent	dépeint	d é p eint	1	0.9262	0.41	7	4	1.75	2
714.5239	0.2016	714.7256	6	lexical decision	105	word	congruent	essai	e ss ai	1	0.6754	14.86	5	3	1.667	2
716.8869	0.2015	717.0884	6	lexical decision	106	pseudoword	congruent	mengement	m en ge m ent	1	0.7033	n/a	9	6	1.5	3
719.2453	0.2015	719.4468	6	lexical decision	107	pseudoword	incongruent	fauscant	fa us can t	1	0.784	n/a	8	4	2	2
721.924	0.2022	722.1262	6	lexical decision	108	pseudoword	congruent	chindron	ch in d r on	1	0.6511	n/a	8	5	1.6	2
724.2848	0.2016	724.4864	6	lexical decision	109	pseudoword	incongruent	senlant	se nl a nt	1	0.6235	n/a	7	4	1.75	2
726.6653	0.2015	726.8668	6	lexical decision	110	pseudoword	congruent	tanquanse	t an qu an se	1	0.9318	n/a	9	5	1.8	2
729.3233	0.2026	729.5259	6	lexical decision	111	pseudoword	incongruent	fantresse	fa nt re sse	1	0.9038	n/a	9	6	1.5	2
732.004	0.2015	732.2055	6	lexical decision	112	word	incongruent	bambou	ba m bo u	1	0.647	6.15	6	4	1.5	2
734.3656	0.2016	734.5672	6	lexical decision	113	word	congruent	touchante	t ou ch an te	1	0.8464	9.73	9	5	1.8	2
736.7451	0.2015	736.9466	6	lexical decision	114	word	congruent	angoisse	an g oi sse	1	0.8198	68.99	8	5	1.6	2
741.435	0.2015	741.6365	6	lexical decision	115	pseudoword	incongruent	chougnon	cho u gno n	1	0.711	n/a	8	4	2	2
744.0647	0.2016	744.2664	6	lexical decision	116	pseudoword	congruent	banqueur	b an qu eu r	1	1.0491	n/a	8	5	1.6	2
746.4222	0.2023	746.6245	6	lexical decision	117	pseudoword	congruent	sauhant	s au hant	1	0.8626	n/a	7	3	2.333	1
749.1194	0.2024	749.3218	6	lexical decision	118	word	incongruent	mondain	mo n dai n	1	1.0483	13.24	7	4	1.75	2
751.4653	0.2017	751.667	6	lexical decision	119	word	congruent	bandeau	b an d eau	1	1.0155	6.49	7	4	1.75	2
753.8109	0.2013	754.0123	6	lexical decision	120	word	congruent	poignant	p oi gn ant	1	0.6527	6.22	8	5	1.6	2
