onset	duration	offset	block	task	trial	lexicality	congruency	stimulus	stimulus_spaced	correct	response_time	word_freq	nb_letters	nb_phonemes	ratio	nb_syllables
0.248766103937669	5	5.24876610393767	5	instructions lexical decision	n/a	n/a	n/a	n/a	n/a	n/a	n/a	n/a	n/a	n/a	n/a	n/a
13.161	0.2013	13.3623	5	lexical decision	1	pseudoword	incongruent	caillon	c ai llo n	1	0.9157	n/a	7	4	1.75	2
15.5533	0.2013	15.7546	5	lexical decision	2	pseudoword	incongruent	soichante	so ic ha n te	1	0.8095	n/a	9	6	1.5	2
17.9351	0.2013	18.1364	5	lexical decision	3	word	congruent	touchant	t ou ch ant	1	0.5745	9.73	8	4	2	2
20.2661	0.2017	20.4679	5	lexical decision	4	word	incongruent	enchanteur	e nc ha nte ur	1	0.5985	2.64	10	6	1.667	3
22.6697	0.2015	22.8712	5	lexical decision	5	pseudoword	congruent	alaissée	a l ai ss ée	1	0.6509	n/a	8	5	1.6	3
27.6772	0.2021	27.8793	5	lexical decision	6	word	congruent	chapeau	ch a p eau	1	0.5473	88.04	7	4	1.75	2
30.3909	0.2016	30.5925	5	lexical decision	7	word	congruent	fauteuil	f au t euil	1	0.4916	102.03	8	5	1.6	2
32.7512	0.202	32.9532	5	lexical decision	8	pseudoword	congruent	serchouffe	s e r ch ou ffe	1	0.5583	n/a	10	6	1.667	2
37.7335	0.2015	37.935	5	lexical decision	9	pseudoword	incongruent	pausson	pa us so n	1	0.6579	n/a	7	4	1.75	2
40.0537	0.2016	40.2553	5	lexical decision	10	word	incongruent	souffle	so u ff le	1	0.4896	100.2	7	4	1.75	1
44.7356	0.2018	44.9374	5	lexical decision	11	word	incongruent	enseignant	e nse ig na nt	1	0.5466	1.69	10	5	2	3
47.069	0.2015	47.2705	5	lexical decision	12	word	incongruent	offensant	o ffe ns a nt	1	0.6143	1.01	9	5	1.8	3
52.0548	0.2017	52.2565	5	lexical decision	13	word	incongruent	couchette	co uc het te	1	0.7433	6.28	9	5	1.8	2
54.3891	0.2015	54.5906	5	lexical decision	14	pseudoword	congruent	condant	c on d ant	1	0.7581	n/a	7	4	1.75	2
59.3737	0.2015	59.5752	5	lexical decision	15	word	incongruent	confondant	co n fo n da nt	1	0.5684	0.95	10	6	1.667	3
62.0108	0.2017	62.2126	5	lexical decision	16	pseudoword	incongruent	souperrant	so u p err a nt	1	0.6861	n/a	10	6	1.667	3
64.369	0.2013	64.5703	5	lexical decision	17	pseudoword	congruent	feurchille	f eu r ch ille	1	0.669	n/a	10	6	1.667	2
69.0519	0.2013	69.2532	5	lexical decision	18	pseudoword	incongruent	pouchant	po uc ha nt	1	0.753	n/a	8	4	2	2
73.6933	0.2016	73.8948	5	lexical decision	19	pseudoword	congruent	moeutien	m oeu t i en	1	0.7385	n/a	8	5	1.6	2
76.0273	0.2016	76.2289	5	lexical decision	20	word	congruent	douillet	d ou ill et	1	0.6155	6.96	8	4	2	2
78.4081	0.2023	78.6104	5	lexical decision	21	pseudoword	congruent	tanleau	t an l eau	1	0.7856	n/a	7	4	1.75	2
81.0697	0.2019	81.2716	5	lexical decision	22	word	congruent	rancoeur	r an c oeu r	1	0.571	6.15	8	5	1.6	2
83.7474	0.2015	83.9489	5	lexical decision	23	word	congruent	bandeau	b an d eau	1	0.6963	6.49	7	4	1.75	2
86.4091	0.2017	86.6108	5	lexical decision	24	pseudoword	incongruent	naidant	na id an t	1	0.6086	n/a	7	4	1.75	2
88.7893	0.2024	88.9917	5	lexical decision	25	word	incongruent	maillon	m ai llo n	1	0.5883	3.18	7	4	1.75	2
93.45	0.2015	93.6516	5	lexical decision	26	word	congruent	essaim	e ss aim	1	0.6355	4.53	6	3	2	2
95.7982	0.2016	95.9998	5	lexical decision	27	pseudoword	congruent	innalence	i nn a l en ce	1	0.6853	n/a	9	6	1.5	3
100.7715	0.2022	100.9736	5	lexical decision	28	pseudoword	incongruent	roupentre	ro u pe n t re	1	0.6549	n/a	9	6	1.5	2
105.4114	0.2018	105.6132	5	lexical decision	29	word	congruent	embrun	em b r un	1	0.6109	2.97	6	4	1.5	2
108.05	0.2017	108.2517	5	lexical decision	30	word	incongruent	soucoupe	so u co up e	1	0.6104	8.85	8	5	1.6	2
110.4261	0.2016	110.6277	5	lexical decision	31	pseudoword	congruent	éphouce	é ph ou ce	1	0.6141	n/a	7	4	1.75	2
112.7888	0.2013	112.9901	5	lexical decision	32	pseudoword	congruent	incantrant	in c an t r ant	1	0.8146	n/a	10	6	1.667	3
115.4665	0.2018	115.6683	5	lexical decision	33	word	congruent	outrance	ou t r an ce	1	0.5966	3.51	8	5	1.6	2
117.8242	0.2014	118.0255	5	lexical decision	34	word	congruent	néant	n é ant	1	0.646	23.99	5	3	1.667	2
120.5054	0.2019	120.7073	5	lexical decision	35	word	incongruent	toucher	to uc he r	1	0.5417	10.14	7	4	1.75	2
122.8668	0.2014	123.0682	5	lexical decision	36	word	incongruent	pamphlet	pa mp h l et	1	0.6903	1.42	8	5	1.6	2
125.2462	0.2015	125.4477	5	lexical decision	37	word	incongruent	frein	f rei n	1	0.6079	13.18	5	3	1.667	1
127.9051	0.2022	128.1073	5	lexical decision	38	word	congruent	douche	d ou che	1	0.5709	23.85	6	3	2	1
130.588	0.2017	130.7897	5	lexical decision	39	word	incongruent	guinguette	g ui ng ue tte	1	0.656	3.04	10	5	2	2
132.9492	0.2015	133.1507	5	lexical decision	40	word	congruent	innocence	i nn o c en ce	1	0.5268	20	9	6	1.5	3
135.3279	0.2016	135.5295	5	lexical decision	41	word	congruent	cinglant	c in g l ant	1	0.49	2.77	8	5	1.6	2
137.7374	0.2017	137.9391	5	lexical decision	42	word	incongruent	bambou	ba m bo u	1	0.5015	6.15	6	4	1.5	2
140.0672	0.2023	140.2695	5	lexical decision	43	pseudoword	congruent	ennoûlant	en n oû l ant	1	0.6957	n/a	9	5	1.8	3
147.6547	0.2018	147.8566	5	lexical decision	44	word	congruent	bouleau	b ou l eau	1	0.661	4.05	7	4	1.75	2
150.047	0.2015	150.2485	5	lexical decision	45	word	incongruent	bourreau	bo u rr ea u	1	0.6177	12.91	8	4	2	2
152.4252	0.2016	152.6268	5	lexical decision	46	word	incongruent	bleuet	b le ue t	1	1.1204	1.22	6	4	1.5	2
154.7858	0.2017	154.9875	5	lexical decision	47	pseudoword	incongruent	ransaise	ra ns a is e	1	0.6778	n/a	8	5	1.6	2
157.4671	0.202	157.6691	5	lexical decision	48	word	congruent	mensonge	m en s on ge	1	0.5554	35.41	8	5	1.6	2
160.127	0.2015	160.3285	5	lexical decision	49	pseudoword	congruent	heudaise	heu d ai se	1	0.6516	n/a	8	4	2	2
162.5055	0.2017	162.7072	5	lexical decision	50	word	congruent	plongeuse	p l on g eu se	1	0.5189	3.11	9	6	1.5	2
167.468	0.2013	167.6693	5	lexical decision	51	word	incongruent	éreintant	é rei n ta nt	1	0.6724	0.14	9	5	1.8	3
170.1049	0.2013	170.3062	5	lexical decision	52	word	incongruent	chaudron	c ha ud ro n	1	0.5335	5.81	8	5	1.6	2
172.484	0.2013	172.6853	5	lexical decision	53	pseudoword	incongruent	bombin	bo m bi n	1	0.6663	n/a	6	4	1.5	2
177.4972	0.2024	177.6996	5	lexical decision	54	pseudoword	incongruent	entouillé	e n to ui llé	1	0.718	n/a	9	5	1.8	3
179.8751	0.2015	180.0767	5	lexical decision	55	word	congruent	gloussant	g l ou ss ant	1	0.6842	0.54	9	5	1.8	2
182.2653	0.2017	182.467	5	lexical decision	56	word	congruent	surchauffe	s u r ch au ffe	1	0.672	0.27	10	6	1.667	2
184.8784	0.2019	185.0803	5	lexical decision	57	word	incongruent	pince	pi nc e	1	0.5158	14.73	5	3	1.667	1
187.204	0.2016	187.4056	5	lexical decision	58	pseudoword	congruent	pambant	p am b ant	1	0.6771	n/a	7	4	1.75	2
189.8988	0.2019	190.1008	5	lexical decision	59	pseudoword	incongruent	quophon	q uop ho n	1	0.6583	n/a	7	4	1.75	2
192.2453	0.2019	192.4472	5	lexical decision	60	pseudoword	incongruent	vencouge	ve n co u ge	1	0.6638	n/a	8	5	1.6	2
194.6402	0.2016	194.8417	5	lexical decision	61	pseudoword	incongruent	offouzant	o ffo uz a nt	1	0.7528	n/a	9	5	1.8	3
197.2816	0.2016	197.4832	5	lexical decision	62	pseudoword	congruent	lambe	l am be	1	0.9923	n/a	5	3	1.667	1
199.6676	0.2015	199.8691	5	lexical decision	63	word	congruent	dépeint	d é p eint	1	0.6623	0.41	7	4	1.75	2
202.024	0.2016	202.2256	5	lexical decision	64	word	incongruent	mourant	mo ur a nt	1	0.618	5.74	7	4	1.75	2
204.4021	0.2021	204.6043	5	lexical decision	65	pseudoword	congruent	nuant	n u ant	0	0.5767	n/a	5	3	1.667	2
206.7952	0.2016	206.9968	5	lexical decision	66	pseudoword	incongruent	semphle	se mp hl e	1	0.6427	n/a	7	4	1.75	1
209.143	0.2024	209.3454	5	lexical decision	67	pseudoword	congruent	oipeau	oi p eau	1	0.7149	n/a	6	4	1.5	2
211.8204	0.2016	212.022	5	lexical decision	68	pseudoword	incongruent	fenteau	fe n te au	1	0.6984	n/a	7	4	1.75	2
214.1846	0.2014	214.386	5	lexical decision	69	word	congruent	vainqueur	v ain qu eu r	1	0.5632	11.35	9	5	1.8	2
219.1747	0.2023	219.377	5	lexical decision	70	pseudoword	incongruent	poute	po ut e	1	0.83	n/a	5	3	1.667	1
221.7993	0.2013	222.0007	5	lexical decision	71	word	congruent	maintien	m ain t i en	1	0.5803	10.14	8	5	1.6	2
226.4647	0.202	226.6667	5	lexical decision	72	pseudoword	incongruent	leireux	le i re ux	1	0.6468	n/a	7	4	1.75	2
228.802	0.2016	229.0036	5	lexical decision	73	word	incongruent	essai	es sa i	1	0.6726	14.86	5	3	1.667	2
233.4853	0.2016	233.6868	5	lexical decision	74	pseudoword	congruent	essant	e ss ant	1	0.7001	n/a	6	3	2	2
235.8217	0.2016	236.0233	5	lexical decision	75	word	incongruent	tentant	te n ta nt	1	0.9567	3.18	7	4	1.75	2
238.1838	0.2015	238.3853	5	lexical decision	76	word	congruent	aile	ai le	1	0.6616	60.47	4	2	2	1
240.5621	0.2022	240.7644	5	lexical decision	77	word	incongruent	longueur	lo n g ue ur	1	0.4993	28.45	8	5	1.6	2
242.9425	0.2016	243.1441	5	lexical decision	78	pseudoword	congruent	fanseuil	f an s euil	1	0.6738	n/a	8	5	1.6	2
247.8994	0.2016	248.101	5	lexical decision	79	pseudoword	congruent	raisissant	r ai s i ss ant	1	0.5999	n/a	10	6	1.667	3
250.2935	0.2015	250.495	5	lexical decision	80	word	incongruent	teigne	te ig ne	1	0.5897	1.15	6	3	2	1
252.6242	0.2016	252.8258	5	lexical decision	81	pseudoword	congruent	choucetant	ch ou c e t ant	1	0.654	n/a	10	6	1.667	3
255.3015	0.2021	255.5036	5	lexical decision	82	pseudoword	incongruent	breuil	b re ui l	1	0.7676	n/a	6	4	1.5	2
257.6635	0.2015	257.8651	5	lexical decision	83	pseudoword	congruent	cauglant	c au g l ant	1	0.7536	n/a	8	5	1.6	2
260.0571	0.2015	260.2586	5	lexical decision	84	pseudoword	incongruent	châssin	c hâ ssi n	1	0.7059	n/a	7	4	1.75	2
262.4017	0.2016	262.6033	5	lexical decision	85	word	congruent	lionceau	l i on c eau	1	0.6004	1.01	8	5	1.6	2
264.7823	0.2013	264.9836	5	lexical decision	86	pseudoword	incongruent	ingutient	i ng u t ie nt	1	0.7457	n/a	9	6	1.5	3
267.174	0.2015	267.3755	5	lexical decision	87	word	incongruent	souillure	so u il lu re	1	0.7221	2.91	9	5	1.8	2
269.519	0.2015	269.7205	5	lexical decision	88	word	congruent	ouvrant	ou v r ant	1	0.61	3.18	7	4	1.75	2
271.8992	0.2013	272.1006	5	lexical decision	89	word	congruent	araignée	a r ai gn ée	1	0.6886	17.84	8	5	1.6	3
276.8638	0.202	277.0659	5	lexical decision	90	pseudoword	incongruent	aitance	a ita nc e	1	0.6559	n/a	7	4	1.75	2
279.2009	0.2016	279.4024	5	lexical decision	91	pseudoword	congruent	moupeau	m ou p eau	1	0.6329	n/a	7	4	1.75	2
281.8786	0.2017	282.0803	5	lexical decision	92	word	incongruent	langue	la ng ue	1	0.5131	126.28	6	3	2	1
286.8452	0.2015	287.0468	5	lexical decision	93	pseudoword	congruent	fourmand	f ou r m and	1	0.6654	n/a	8	5	1.6	2
289.4812	0.2016	289.6828	5	lexical decision	94	pseudoword	incongruent	enteuvant	e nt e uva nt	1	0.5824	n/a	9	5	1.8	3
291.8605	0.2018	292.0623	5	lexical decision	95	word	incongruent	bouchon	bo uc ho n	1	0.5	14.46	7	4	1.75	2
294.5217	0.202	294.7238	5	lexical decision	96	pseudoword	congruent	maîcheton	m aî ch e t on	1	0.5558	n/a	9	6	1.5	3
296.8991	0.2015	297.1007	5	lexical decision	97	pseudoword	incongruent	mougnant	mo ug na nt	1	0.7543	n/a	8	4	2	2
301.8659	0.2018	302.0677	5	lexical decision	98	pseudoword	congruent	liondain	l i on d ain	1	0.6985	n/a	8	5	1.6	2
304.4991	0.2029	304.7019	5	lexical decision	99	word	incongruent	moussant	mo us sa nt	1	0.7164	0.61	8	4	2	2
306.8773	0.2019	307.0793	5	lexical decision	100	pseudoword	incongruent	freau	f rea u	1	0.606	n/a	5	3	1.667	1
312.1442	0.2017	312.3458	5	lexical decision	101	word	incongruent	phalange	p ha la n ge	1	0.592	5.2	8	5	1.6	2
314.4798	0.2016	314.6815	5	lexical decision	102	pseudoword	congruent	poigeain	p oi ge ain	1	0.7435	n/a	8	5	1.6	2
317.16	0.2013	317.3613	5	lexical decision	103	pseudoword	congruent	treussant	t r eu ss ant	1	0.7352	n/a	9	5	1.8	2
319.5176	0.2013	319.7189	5	lexical decision	104	pseudoword	incongruent	janguelle	ja ng ue lle	1	0.7726	n/a	9	5	1.8	2
322.1974	0.2021	322.3994	5	lexical decision	105	pseudoword	congruent	feutteau	f eu tt eau	1	0.6057	n/a	8	4	2	2
324.855	0.2005	325.0555	5	lexical decision	106	pseudoword	incongruent	bougnet	bo ug ne t	1	0.9811	n/a	7	4	1.75	2
327.2377	0.2021	327.4398	5	lexical decision	107	word	congruent	bronche	b r on che	1	0.8763	2.23	7	4	1.75	1
329.5994	0.2016	329.801	5	lexical decision	108	pseudoword	congruent	santeuse	s an t eu se	0	0.8316	n/a	8	5	1.6	2
332.2794	0.2029	332.4823	5	lexical decision	109	word	congruent	bouillon	b ou ill on	1	0.6295	8.92	8	4	2	2
334.9417	0.2015	335.1433	5	lexical decision	110	pseudoword	incongruent	taillance	t ai lla nc e	0	0.6252	n/a	9	5	1.8	2
337.3181	0.2015	337.5196	5	lexical decision	111	pseudoword	incongruent	proune	p ro u ne	1	0.5738	n/a	6	4	1.5	1
339.6779	0.2016	339.8794	5	lexical decision	112	word	congruent	avant	a v ant	1	0.6981	21.35	5	3	1.667	2
342.0558	0.2017	342.2575	5	lexical decision	113	pseudoword	incongruent	beuge	be uge	1	0.7929	n/a	5	3	1.667	1
344.435	0.2016	344.6366	5	lexical decision	114	pseudoword	congruent	groussant	g r ou ss ant	1	0.7598	n/a	9	5	1.8	2
347.098	0.2016	347.2996	5	lexical decision	115	word	congruent	vaisseau	v ai ss eau	1	1.0026	12.43	8	4	2	2
349.5071	0.202	349.7091	5	lexical decision	116	word	incongruent	mouvement	mo uv e me nt	1	0.7017	182.97	9	6	1.5	3
351.8369	0.2015	352.0384	5	lexical decision	117	word	congruent	embout	em b out	1	0.7448	0.81	6	3	2	2
356.482	0.2015	356.6836	5	lexical decision	118	pseudoword	incongruent	jouanre	jo ua nr e	1	0.7266	n/a	7	4	1.75	1
358.8583	0.2019	359.0602	5	lexical decision	119	word	incongruent	troupeau	tr o up ea u	1	0.5823	25.54	8	5	1.6	2
361.516	0.2015	361.7175	5	lexical decision	120	pseudoword	congruent	désaint	d é s aint	1	0.6546	n/a	7	4	1.75	2
381.002673369905	5	386.002673369905	6	instructions reading aloud	n/a	n/a	n/a	n/a	n/a	n/a	n/a	n/a	n/a	n/a	n/a	n/a
393.4814	0.2016	393.683	6	reading aloud	1	word	incongruent	ignorance	ig no ra n c e	1	0.8711	16.82	9	6	1.5	3
395.9158	0.2017	396.1175	6	reading aloud	2	word	congruent	moussante	m ou ss an te	1	0.7819	0.61	9	5	1.8	2
398.2961	0.2018	398.4979	6	reading aloud	3	word	congruent	faisceau	f ai sc eau	1	0.8111	10	8	4	2	2
407.9662	0.2016	408.1678	6	reading aloud	4	pseudoword	incongruent	nonte	no n te	1	0.9515	n/a	5	3	1.667	1
410.3351	0.2015	410.5366	6	reading aloud	5	word	incongruent	couvent	co uv e nt	1	0.938	26.15	7	4	1.75	2
413.016	0.2016	413.2176	6	reading aloud	6	word	incongruent	ancien	a nc ie n	1	0.7364	154.86	6	4	1.5	2
417.6801	0.2017	417.8819	6	reading aloud	7	pseudoword	congruent	gachain	g a ch ain	1	0.9109	n/a	7	4	1.75	2
420.0372	0.2024	420.2397	6	reading aloud	8	pseudoword	congruent	anduaine	an d u ai ne	0	n/a	n/a	8	5	1.6	2
422.3948	0.2016	422.5964	6	reading aloud	9	word	congruent	auteur	au t eu r	1	0.7969	41.89	6	4	1.5	2
424.7761	0.2015	424.9776	6	reading aloud	10	pseudoword	congruent	chatreuil	ch a t r euil	1	0.8167	n/a	9	6	1.5	2
427.4349	0.2015	427.6364	6	reading aloud	11	word	congruent	dessin	d e ss in	1	0.7707	56.28	6	4	1.5	2
429.8149	0.2016	430.0165	6	reading aloud	12	word	congruent	saignant	s ai gn ant	1	0.7324	4.32	8	4	2	2
432.1738	0.2013	432.3751	6	reading aloud	13	pseudoword	congruent	mougnette	m ou gn ette	1	0.8615	n/a	9	5	1.8	2
434.5558	0.2013	434.7571	6	reading aloud	14	word	congruent	contrainte	c on t r ain te	1	0.9314	5.81	10	6	1.667	2
436.9929	0.2013	437.1942	6	reading aloud	15	pseudoword	congruent	encousse	en c ou sse	1	0.8813	n/a	8	4	2	2
439.3934	0.2018	439.5952	6	reading aloud	16	word	incongruent	croissant	c ro is sa nt	1	0.8198	18.72	9	6	1.5	2
441.7724	0.2013	441.9736	6	reading aloud	17	word	incongruent	tendon	te n do n	1	0.7598	3.99	6	4	1.5	2
444.4365	0.2016	444.6381	6	reading aloud	18	word	incongruent	composant	co m p os a nt	1	0.807	1.49	9	6	1.5	3
446.8148	0.2015	447.0163	6	reading aloud	19	word	incongruent	autruche	a ut r uc he	1	0.8171	3.04	8	5	1.6	2
453.7812	0.2016	453.9828	6	reading aloud	20	pseudoword	incongruent	aivant	a iva nt	1	0.9474	n/a	6	3	2	2
456.1951	0.2016	456.3968	6	reading aloud	21	word	incongruent	chancelant	c ha n ce la nt	1	0.6684	2.23	10	6	1.667	3
468.6698	0.2015	468.8713	6	reading aloud	22	word	congruent	franche	f r an che	1	0.9186	23.45	7	4	1.75	1
471.4115	0.2017	471.6131	6	reading aloud	23	word	congruent	poumon	p ou m on	1	0.8931	21.55	6	4	1.5	2
474.1734	0.2017	474.375	6	reading aloud	24	pseudoword	congruent	banquin	b an qu in	1	0.7024	n/a	7	4	1.75	2
476.8528	0.2015	477.0543	6	reading aloud	25	pseudoword	incongruent	sencher	se nc he r	1	0.7046	n/a	7	4	1.75	2
479.2129	0.2017	479.4146	6	reading aloud	26	pseudoword	congruent	sonfflant	s on ff l ant	1	0.7964	n/a	9	5	1.8	2
481.593	0.2016	481.7947	6	reading aloud	27	word	congruent	souplesse	s ou p l esse	1	0.7821	9.86	9	6	1.5	2
484.0325	0.2014	484.2338	6	reading aloud	28	pseudoword	incongruent	beugnet	be ug ne t	1	0.7852	n/a	7	4	1.75	2
486.7324	0.2013	486.9337	6	reading aloud	29	pseudoword	incongruent	taigeanse	ta ig ea ns e	1	0.8235	n/a	9	5	1.8	2
489.3913	0.2013	489.5926	6	reading aloud	30	word	congruent	souffrant	s ou ff r ant	1	0.6619	5.14	9	5	1.8	2
491.7728	0.2013	491.974	6	reading aloud	31	word	congruent	fainéante	f ai n é an te	1	0.7012	1.89	9	6	1.5	3
494.5329	0.2014	494.7344	6	reading aloud	32	word	incongruent	citrouille	c it ro ui l le	1	0.7498	2.91	10	6	1.667	2
496.9155	0.2016	497.117	6	reading aloud	33	word	incongruent	symphonie	sy m p ho n ie	1	0.7387	5.54	9	6	1.5	3
501.5769	0.2016	501.7784	6	reading aloud	34	pseudoword	incongruent	pombant	po mb a nt	1	0.8978	n/a	7	4	1.75	2
504.034	0.2015	504.2355	6	reading aloud	35	word	incongruent	inchangé	i nc ha ng é	1	0.7509	1.69	8	5	1.6	3
509.295	0.2019	509.497	6	reading aloud	36	word	congruent	dansant	d an s ant	1	0.7006	6.89	7	4	1.75	2
511.7312	0.2015	511.9327	6	reading aloud	37	word	congruent	lambeau	l am b eau	1	0.7561	14.26	7	4	1.75	2
516.4182	0.2015	516.6197	6	reading aloud	38	word	incongruent	complainte	co m p lai n te	1	0.8434	2.3	10	6	1.667	2
518.8529	0.2018	519.0547	6	reading aloud	39	pseudoword	congruent	chirquance	ch i r qu an ce	1	0.7915	n/a	10	6	1.667	2
521.513	0.2015	521.7145	6	reading aloud	40	word	incongruent	engouement	e ngo ue me nt	1	0.6976	1.55	10	5	2	3
523.891	0.2016	524.0926	6	reading aloud	41	pseudoword	incongruent	baichoîte	ba ic ho ît e	1	0.8028	n/a	9	6	1.5	2
526.5501	0.2015	526.7516	6	reading aloud	42	word	incongruent	courant	co ur a nt	1	0.9505	79.73	7	4	1.75	2
528.9306	0.2015	529.1322	6	reading aloud	43	word	incongruent	coussin	co us si n	1	0.8769	22.7	7	4	1.75	2
533.8951	0.2015	534.0966	6	reading aloud	44	pseudoword	incongruent	embenche	e mbe nc he	1	0.8662	n/a	8	4	2	2
536.6279	0.2013	536.8293	6	reading aloud	45	word	congruent	grain	g r ain	1	0.7219	35.95	5	3	1.667	1
539.0092	0.2018	539.211	6	reading aloud	46	pseudoword	incongruent	brouche	b ro uc he	1	0.7232	n/a	7	4	1.75	1
541.6722	0.2013	541.8736	6	reading aloud	47	word	congruent	champignon	ch am p i gn on	1	0.6378	12.97	10	6	1.667	3
544.0488	0.2013	544.2501	6	reading aloud	48	pseudoword	congruent	entouce	en t ou ce	1	0.7245	n/a	7	4	1.75	2
546.7108	0.2016	546.9124	6	reading aloud	49	pseudoword	incongruent	taison	ta i so n	1	0.7147	n/a	6	4	1.5	2
549.3921	0.2015	549.5936	6	reading aloud	50	word	congruent	empreinte	em p r ein te	1	0.6789	15.61	9	5	1.8	2
551.7513	0.2015	551.9528	6	reading aloud	51	pseudoword	congruent	canreau	c an r eau	1	0.7944	n/a	7	4	1.75	2
554.1297	0.2015	554.3313	6	reading aloud	52	word	incongruent	abaissant	a ba is sa nt	1	0.7139	0.27	9	5	1.8	3
556.7902	0.2025	556.9928	6	reading aloud	53	pseudoword	congruent	soncieuce	s on c i eu ce	0	n/a	n/a	9	6	1.5	2
559.4684	0.2016	559.67	6	reading aloud	54	word	incongruent	mouche	mo uc he	1	0.9738	46.89	6	3	2	1
562.2298	0.202	562.4318	6	reading aloud	55	pseudoword	congruent	fangueuse	f an gu eu se	0	n/a	n/a	9	5	1.8	2
564.6085	0.2016	564.8101	6	reading aloud	56	pseudoword	incongruent	trinche	t ri nc he	1	0.783	n/a	7	4	1.75	1
567.2662	0.2021	567.4683	6	reading aloud	57	pseudoword	congruent	roeud	r oeud	1	0.6416	n/a	5	2	2.5	1
569.6498	0.2019	569.8518	6	reading aloud	58	pseudoword	congruent	haurravant	hau rr a v ant	1	0.6718	n/a	10	5	2	3
572.3087	0.2016	572.5103	6	reading aloud	59	word	congruent	fraîche	f r aî che	1	0.7818	111.69	7	4	1.75	1
575.0692	0.2015	575.2707	6	reading aloud	60	pseudoword	incongruent	chaimmant	c ha imma nt	1	0.7564	n/a	9	4	2.25	2
577.448	0.2022	577.6502	6	reading aloud	61	word	congruent	bouquin	b ou qu in	1	0.7449	27.7	7	4	1.75	2
579.8087	0.2017	580.0105	6	reading aloud	62	word	incongruent	aimant	a ima nt	1	0.8278	2.97	6	3	2	2
582.1916	0.2015	582.3931	6	reading aloud	63	pseudoword	incongruent	rangessant	ra ng es sa nt	1	0.8544	n/a	10	6	1.667	3
584.5703	0.2014	584.7717	6	reading aloud	64	word	incongruent	allégeance	a ll ég ea n ce	1	0.7557	1.42	10	6	1.667	3
589.5314	0.2014	589.7329	6	reading aloud	65	pseudoword	congruent	mouquon	m ou qu on	1	0.8296	n/a	7	4	1.75	2
594.5706	0.2013	594.7719	6	reading aloud	66	word	congruent	chameau	ch a m eau	1	0.7519	10.54	7	4	1.75	2
597.0081	0.2016	597.2097	6	reading aloud	67	pseudoword	congruent	chotant	ch o t ant	1	0.8619	n/a	7	4	1.75	2
599.3894	0.2016	599.591	6	reading aloud	68	pseudoword	incongruent	incequant	i nc e qua nt	0	n/a	n/a	9	5	1.8	3
602.047	0.2016	602.2486	6	reading aloud	69	word	congruent	haineuse	hai n eu se	1	0.7184	6.42	8	4	2	2
604.429	0.2017	604.6307	6	reading aloud	70	word	incongruent	soudain	so ud ai n	1	0.7202	65.27	7	4	1.75	2
607.0868	0.2015	607.2884	6	reading aloud	71	pseudoword	congruent	jinge	j in ge	1	0.759	n/a	5	3	1.667	1
609.4668	0.2026	609.6695	6	reading aloud	72	pseudoword	incongruent	bigne	b ig ne	1	0.6521	n/a	5	3	1.667	1
614.4332	0.2026	614.6358	6	reading aloud	73	pseudoword	incongruent	choupache	c ho up ac he	1	0.8138	n/a	9	5	1.8	2
616.7694	0.2015	616.9709	6	reading aloud	74	pseudoword	congruent	imbrante	im b r an te	1	0.7004	n/a	8	5	1.6	2
619.4471	0.2017	619.6487	6	reading aloud	75	pseudoword	incongruent	cambant	ca mb a nt	0	n/a	n/a	7	4	1.75	2
622.1091	0.2016	622.3107	6	reading aloud	76	word	congruent	paillasson	p a ill a ss on	1	0.7265	4.39	10	6	1.667	3
624.4885	0.2021	624.6906	6	reading aloud	77	word	congruent	balluchon	b a ll u ch on	1	0.7625	0.54	9	6	1.5	3
627.1491	0.2021	627.3512	6	reading aloud	78	pseudoword	congruent	aucience	au c i en ce	1	0.7583	n/a	8	5	1.6	2
629.527	0.2015	629.7286	6	reading aloud	79	pseudoword	incongruent	encrunt	e nc ru nt	1	0.7381	n/a	7	4	1.75	2
631.8859	0.2016	632.0876	6	reading aloud	80	pseudoword	congruent	pansonce	p an s on ce	1	0.8442	n/a	8	5	1.6	2
634.264	0.2028	634.4668	6	reading aloud	81	pseudoword	incongruent	nent	ne nt	1	0.8196	n/a	4	2	2	1
636.6467	0.2013	636.848	6	reading aloud	82	word	incongruent	incessant	i nc e ssa nt	1	0.7766	12.23	9	5	1.8	3
639.1046	0.2013	639.306	6	reading aloud	83	word	incongruent	tronche	t ro nc he	1	0.7715	25.68	7	4	1.75	1
641.4847	0.2014	641.6861	6	reading aloud	84	word	incongruent	banquet	ba nq ue t	1	0.7099	5.88	7	4	1.75	2
643.8462	0.2015	644.0477	6	reading aloud	85	word	incongruent	baignoire	ba ig no ir e	1	0.7474	15.27	9	6	1.5	2
646.2255	0.2015	646.427	6	reading aloud	86	pseudoword	congruent	ascenmance	a sc en m an ce	1	0.8359	n/a	10	6	1.667	3
648.6869	0.2015	648.8884	6	reading aloud	87	pseudoword	congruent	bitoumeau	b i t ou m eau	1	0.7914	n/a	9	6	1.5	3
653.6703	0.2016	653.8719	6	reading aloud	88	pseudoword	incongruent	encheupée	e nc he upé e	1	0.7961	n/a	9	5	1.8	3
656.4059	0.2017	656.6076	6	reading aloud	89	pseudoword	incongruent	beinf	be i nf	0	n/a	n/a	5	3	1.667	1
661.6696	0.2016	661.8712	6	reading aloud	90	pseudoword	congruent	frangne	f r an gne	1	0.7805	n/a	7	4	1.75	1
664.1065	0.2015	664.308	6	reading aloud	91	word	incongruent	teigneuse	te ig ne us e	1	0.7227	2.84	9	5	1.8	2
666.4856	0.2017	666.6873	6	reading aloud	92	word	congruent	consoeur	c on s oeu r	1	0.7692	0.68	8	5	1.6	2
669.1477	0.2015	669.3492	6	reading aloud	93	word	congruent	saisissant	s ai s i ss ant	1	0.7244	5	10	6	1.667	3
671.527	0.2028	671.7298	6	reading aloud	94	pseudoword	incongruent	moustesse	mo us te s se	1	0.8265	n/a	9	6	1.5	2
673.8868	0.2017	674.0884	6	reading aloud	95	pseudoword	incongruent	plochant	p lo c ha nt	1	0.7752	n/a	8	5	1.6	2
678.8698	0.2016	679.0714	6	reading aloud	96	word	incongruent	flambeau	f la mb ea u	1	0.7838	7.09	8	5	1.6	2
684.2078	0.2017	684.4096	6	reading aloud	97	word	congruent	gagnant	g a gn ant	1	0.7987	1.89	7	4	1.75	2
686.6431	0.2024	686.8455	6	reading aloud	98	pseudoword	congruent	seuge	s eu ge	1	0.7595	n/a	5	3	1.667	1
689.0023	0.2012	689.2035	6	reading aloud	99	pseudoword	incongruent	cheue	c he ue	0	n/a	n/a	5	2	2.5	1
691.3837	0.2013	691.585	6	reading aloud	100	pseudoword	incongruent	aupoune	a upo u ne	1	0.7251	n/a	7	4	1.75	2
693.7629	0.2013	693.9642	6	reading aloud	101	pseudoword	incongruent	chain	c ha in	1	0.6913	n/a	5	2	2.5	1
696.122	0.2017	696.3238	6	reading aloud	102	pseudoword	congruent	frouche	f r ou che	1	0.8499	n/a	7	4	1.75	1
698.5049	0.2015	698.7064	6	reading aloud	103	pseudoword	incongruent	cêfrouille	c êf ro ui l le	1	0.9212	n/a	10	6	1.667	2
700.8643	0.2017	701.0661	6	reading aloud	104	pseudoword	congruent	noumon	n ou m on 	1	0.6946	n/a	6	4	1.5	2
703.5435	0.2017	703.7452	6	reading aloud	105	word	incongruent	quinte	qui n te	1	0.7504	4.86	6	3	2	1
705.905	0.2015	706.1065	6	reading aloud	106	word	congruent	étouffant	é t ou ff ant	1	0.6846	7.97	9	5	1.8	3
708.286	0.2016	708.4876	6	reading aloud	107	pseudoword	congruent	fendéanre	f en d é an re	0	n/a	n/a	9	6	1.5	3
710.6662	0.2016	710.8677	6	reading aloud	108	word	congruent	chapiteau	ch a p i t eau	1	0.6506	3.45	9	6	1.5	3
713.0248	0.2015	713.2263	6	reading aloud	109	word	incongruent	embrouille	e mb ro ui lle	1	0.6159	4.39	10	5	2	2
715.7046	0.2015	715.9061	6	reading aloud	110	pseudoword	congruent	élignant	é l i gn ant	1	0.7354	n/a	8	5	1.6	3
720.4662	0.2017	720.6678	6	reading aloud	111	word	congruent	pendant	p en d ant	1	0.7951	12.5	7	4	1.75	2
722.9031	0.2016	723.1047	6	reading aloud	112	word	congruent	couffin	c ou ff in	1	0.88	1.96	7	4	1.75	2
725.2837	0.2016	725.4852	6	reading aloud	113	word	incongruent	chambre	c ha mb re	1	0.7448	413.31	7	4	1.75	1
727.9421	0.2027	728.1448	6	reading aloud	114	pseudoword	incongruent	mounnon	mo un no n	1	0.6413	n/a	7	4	1.75	2
730.3215	0.202	730.5234	6	reading aloud	115	pseudoword	incongruent	pangné	pa ng né	0	n/a	n/a	6	4	1.5	2
732.6824	0.2016	732.884	6	reading aloud	116	pseudoword	incongruent	senlant	se nl a nt	1	0.796	n/a	7	4	1.75	2
735.3624	0.2015	735.5639	6	reading aloud	117	word	congruent	intendant	in t en d ant	1	0.7382	4.73	9	5	1.8	3
737.7222	0.2016	737.9237	6	reading aloud	118	word	incongruent	chaise	c ha is e	1	0.7964	118.31	6	3	2	1
740.4034	0.2017	740.6051	6	reading aloud	119	pseudoword	congruent	coutronte	c ou t r on te	0	n/a	n/a	9	6	1.5	2
743.062	0.2014	743.2634	6	reading aloud	120	pseudoword	congruent	soussant	s ou ss ant	1	0.6573	n/a	8	4	2	2
