onset	duration	offset	trial	condition	regularity	frequency	word	correct	response_time	word_freq	nb_letters	nb_phonemes	nb_syllables	imageability
12.5549	0.2015	12.7564	1	checker	n/a	n/a	n/a	n/a	n/a	n/a	n/a	n/a	n/a	n/a
15.3775	0.1861	15.5636	2	word	regular	high	peur	1	0.7146	181.58	4	3	1	2.8868
n/a	n/a	n/a	3	fixation	n/a	n/a	n/a	n/a	n/a	n/a	n/a	n/a	n/a	n/a
20.1102	0.1866	20.2967	4	word	regular	high	créature	1	0.6782	12.19	8	7	3	3.2453
n/a	n/a	n/a	5	fixation	n/a	n/a	n/a	n/a	n/a	n/a	n/a	n/a	n/a	n/a
24.8469	0.1854	25.0323	6	word	regular	low	golf	1	0.7968	4.65	4	4	1	4.6415
27.506	0.1848	27.6909	7	word	irregular	high	dix	1	0.7255	217.77	3	3	1	3.6981
n/a	n/a	n/a	8	fixation	n/a	n/a	n/a	n/a	n/a	n/a	n/a	n/a	n/a	n/a
32.2464	0.185	32.4314	9	word	regular	low	oxyde	1	0.7802	4.61	5	5	2	2.1321
34.9255	0.186	35.1115	10	word	irregular	low	oasis	1	0.5903	4.32	5	5	3	4.6792
37.2838	0.2016	37.4853	11	checker	n/a	n/a	n/a	n/a	n/a	n/a	n/a	n/a	n/a	n/a
39.6666	0.1849	39.8514	12	word	irregular	low	tempo	1	0.7916	0.77	5	5	2	2.4717
42.0471	0.185	42.2322	13	word	irregular	low	machisme	1	0.7414	0.13	8	7	2	2.3208
44.4057	0.1849	44.5906	14	word	regular	high	chevelure	1	0.6865	13.65	9	7	3	4.6226
46.7869	0.1848	46.9717	15	word	irregular	high	nerf	1	0.788	11.23	4	3	1	3.7358
49.4461	0.1849	49.631	16	word	irregular	low	faisan	1	0.6438	1	6	4	2	4.5472
52.1237	0.1854	52.3091	17	word	regular	high	animal	1	0.6234	52.94	6	6	3	4.3208
54.4816	0.2014	54.683	18	checker	n/a	n/a	n/a	n/a	n/a	n/a	n/a	n/a	n/a	n/a
56.864	0.1851	57.0491	19	word	regular	high	chic	1	0.7289	9.13	4	3	1	3.283
59.222	0.2015	59.4235	20	checker	n/a	n/a	n/a	n/a	n/a	n/a	n/a	n/a	n/a	n/a
n/a	n/a	n/a	21	fixation	n/a	n/a	n/a	n/a	n/a	n/a	n/a	n/a	n/a	n/a
63.9858	0.1849	64.1707	22	word	irregular	high	tabac	1	0.7661	25.45	5	4	2	4.3774
n/a	n/a	n/a	23	fixation	n/a	n/a	n/a	n/a	n/a	n/a	n/a	n/a	n/a	n/a
68.7248	0.1849	68.9097	24	word	irregular	low	dolmen	1	0.834	0.61	6	6	2	4.3585
71.0851	0.1849	71.2699	25	word	regular	low	porcelet	1	0.8957	0.16	8	7	3	4.6226
73.7644	0.1855	73.95	26	word	irregular	low	bis	1	0.704	4.55	3	3	1	1.8491
76.1249	0.1849	76.3098	27	word	irregular	low	dot	1	0.8774	3.1	3	3	1	2.1509
n/a	n/a	n/a	28	fixation	n/a	n/a	n/a	n/a	n/a	n/a	n/a	n/a	n/a	n/a
81.2653	0.185	81.4503	29	word	regular	low	bovin	1	0.8089	1.45	5	4	2	4.3019
83.6446	0.1849	83.8295	30	word	irregular	high	écho	1	0.7525	26.48	4	3	2	2.7547
86.3046	0.1857	86.4903	31	word	irregular	low	agenda	1	0.744	3.06	6	5	3	4.566
88.6846	0.185	88.8696	32	word	regular	high	sultan	1	0.72	13.42	6	5	2	4.0943
91.3437	0.1849	91.5286	33	word	regular	high	explosion	1	0.6378	17.55	9	9	3	4.6038
93.7237	0.1849	93.9086	34	word	irregular	high	fer	1	0.6531	100.77	3	3	1	3.7547
96.084	0.185	96.2689	35	word	irregular	high	net	1	0.6808	29.26	3	3	1	2.6226
98.4633	0.1848	98.6481	36	word	irregular	low	scout	1	0.6077	1.84	5	4	1	4.5849
100.8441	0.185	101.0291	37	word	irregular	high	automne	1	0.6587	27.61	7	4	2	4.1698
103.5012	0.2014	103.7026	38	checker	n/a	n/a	n/a	n/a	n/a	n/a	n/a	n/a	n/a	n/a
106.1624	0.1847	106.3471	39	word	regular	low	berline	1	0.7755	1.35	7	6	2	3.8868
n/a	n/a	n/a	40	fixation	n/a	n/a	n/a	n/a	n/a	n/a	n/a	n/a	n/a	n/a
110.9226	0.1846	111.1073	41	word	regular	high	force	1	0.8336	205.97	5	4	1	2.717
113.2801	0.2015	113.4815	42	checker	n/a	n/a	n/a	n/a	n/a	n/a	n/a	n/a	n/a	n/a
115.9614	0.2015	116.163	43	checker	n/a	n/a	n/a	n/a	n/a	n/a	n/a	n/a	n/a	n/a
n/a	n/a	n/a	44	fixation	n/a	n/a	n/a	n/a	n/a	n/a	n/a	n/a	n/a	n/a
n/a	n/a	n/a	45	fixation	n/a	n/a	n/a	n/a	n/a	n/a	n/a	n/a	n/a	n/a
123.3632	0.185	123.5482	46	word	regular	high	malin	1	0.7907	11.29	5	4	2	2.0943
125.7427	0.1849	125.9275	47	word	irregular	low	placenta	1	0.7121	1.42	8	7	3	3.717
128.1033	0.1851	128.2884	48	word	irregular	high	orchestre	1	0.6594	18.65	9	7	2	4.8113
130.4836	0.1854	130.669	49	word	regular	low	oie	1	0.6393	3.48	3	2	1	4.9623
n/a	n/a	n/a	50	fixation	n/a	n/a	n/a	n/a	n/a	n/a	n/a	n/a	n/a	n/a
135.3219	0.1849	135.5069	51	word	irregular	high	ours	1	0.9019	12.94	4	3	1	4.9623
n/a	n/a	n/a	52	fixation	n/a	n/a	n/a	n/a	n/a	n/a	n/a	n/a	n/a	n/a
140.3613	0.1854	140.5467	53	word	regular	low	ulcère	1	0.6962	2.71	6	5	2	2.8679
142.7395	0.2015	142.941	54	checker	n/a	n/a	n/a	n/a	n/a	n/a	n/a	n/a	n/a	n/a
145.1019	0.1849	145.2868	55	word	regular	low	bouquiner	1	0.7925	0.52	8	6	3	3.8113
147.7829	0.185	147.968	56	word	regular	high	faim	1	0.6742	46.71	4	2	1	2.5283
150.1418	0.1849	150.3267	57	word	irregular	low	saoul	0	n/a	4.84	5	2	1	3.8302
152.8225	0.1848	153.0073	58	word	irregular	low	chorale	1	0.8156	1.97	7	5	2	4.5472
155.1826	0.1847	155.3673	59	word	regular	low	carnage	1	0.7509	2.16	7	6	2	3.4717
157.8599	0.1847	158.0446	60	word	irregular	high	suspect	1	0.6347	7.35	7	5	2	2.434
n/a	n/a	n/a	61	fixation	n/a	n/a	n/a	n/a	n/a	n/a	n/a	n/a	n/a	n/a
n/a	n/a	n/a	62	fixation	n/a	n/a	n/a	n/a	n/a	n/a	n/a	n/a	n/a	n/a
165.2606	0.1853	165.4458	63	word	irregular	low	lichen	1	0.7805	1.42	6	5	2	4.3019
167.6411	0.1849	167.826	64	word	irregular	high	équateur	1	0.7123	5.84	8	7	3	3.8679
170.0022	0.1852	170.1873	65	word	regular	low	odorat	1	0.6206	1.65	6	5	3	2.434
172.3773	0.2019	172.5792	66	checker	n/a	n/a	n/a	n/a	n/a	n/a	n/a	n/a	n/a	n/a
174.7595	0.1849	174.9444	67	word	irregular	low	laser	1	0.7923	0.77	5	5	2	4.3585
177.4205	0.185	177.6054	68	word	regular	low	adepte	1	0.7215	1.71	6	5	2	1.717
n/a	n/a	n/a	69	fixation	n/a	n/a	n/a	n/a	n/a	n/a	n/a	n/a	n/a	n/a
182.1601	0.1858	182.3459	70	word	irregular	low	jazz	1	0.8468	5.29	4	4	1	3.4151
184.8399	0.1849	185.0248	71	word	regular	low	levain	1	0.6962	1.29	6	4	2	2.8868
187.2007	0.185	187.3857	72	word	regular	low	spire	1	0.63	1.39	5	4	1	1.9811
189.5806	0.1848	189.7654	73	word	irregular	high	estomac	1	0.7509	22.97	7	6	3	4.3019
n/a	n/a	n/a	74	fixation	n/a	n/a	n/a	n/a	n/a	n/a	n/a	n/a	n/a	n/a
n/a	n/a	n/a	75	fixation	n/a	n/a	n/a	n/a	n/a	n/a	n/a	n/a	n/a	n/a
196.9787	0.2016	197.1802	76	checker	n/a	n/a	n/a	n/a	n/a	n/a	n/a	n/a	n/a	n/a
199.3612	0.1849	199.5461	77	word	irregular	low	baptiser	1	0.8779	1.35	8	6	3	3.717
202.0195	0.1849	202.2044	78	word	regular	high	mission	1	0.7712	44.19	7	5	2	2.0566
n/a	n/a	n/a	79	fixation	n/a	n/a	n/a	n/a	n/a	n/a	n/a	n/a	n/a	n/a
206.7805	0.1851	206.9656	80	word	irregular	high	enfer	1	0.7699	25.42	5	4	2	3.6792
209.4385	0.1846	209.6232	81	word	irregular	high	aspect	1	0.7663	77.52	6	4	2	1.3962
212.0968	0.2014	212.2982	82	checker	n/a	n/a	n/a	n/a	n/a	n/a	n/a	n/a	n/a	n/a
214.4795	0.1847	214.6642	83	word	irregular	high	virus	1	0.7844	28.61	5	5	2	3.7547
216.8582	0.1848	217.0429	84	word	regular	high	pile	1	0.8719	17.52	4	3	1	4.4717
219.5191	0.1848	219.7039	85	word	irregular	high	mille	1	0.6301	124.9	5	3	1	2.5849
221.8974	0.2015	222.0989	86	checker	n/a	n/a	n/a	n/a	n/a	n/a	n/a	n/a	n/a	n/a
224.2595	0.1849	224.4444	87	word	regular	high	squelette	1	0.7685	8.52	9	6	2	4.9245
226.6385	0.1861	226.8245	88	word	regular	high	adresse	1	0.6678	44	7	5	2	3.1509
228.9984	0.1848	229.1833	89	word	regular	low	bouffon	1	0.7184	2.06	7	4	2	3.9057
231.6786	0.1848	231.8635	90	word	irregular	high	granit	1	0.6709	5.97	6	6	2	4.0377
n/a	n/a	n/a	91	fixation	n/a	n/a	n/a	n/a	n/a	n/a	n/a	n/a	n/a	n/a
236.417	0.2015	236.6185	92	checker	n/a	n/a	n/a	n/a	n/a	n/a	n/a	n/a	n/a	n/a
n/a	n/a	n/a	93	fixation	n/a	n/a	n/a	n/a	n/a	n/a	n/a	n/a	n/a	n/a
241.1586	0.1849	241.3435	94	word	irregular	low	escroc	1	0.7151	1.58	6	5	2	2.8868
243.5382	0.1854	243.7236	95	word	irregular	high	ville	1	0.6719	227.16	5	3	1	4.3396
245.898	0.1848	246.0829	96	word	irregular	high	hier	1	0.7081	64.68	4	3	1	2.1321
248.5781	0.1848	248.7629	97	word	irregular	high	iris	1	0.601	5.55	4	4	2	4.5094
251.2386	0.185	251.4236	98	word	irregular	low	linguiste	1	0.6691	1.42	9	7	2	2.2453
253.6185	0.1848	253.8033	99	word	regular	low	girouette	1	0.6302	1	9	6	2	4.4717
255.9773	0.1849	256.1622	100	word	irregular	high	outil	1	0.6857	11.94	5	3	2	4.0755
258.355	0.2013	258.5563	101	checker	n/a	n/a	n/a	n/a	n/a	n/a	n/a	n/a	n/a	n/a
261.0148	0.2014	261.2162	102	checker	n/a	n/a	n/a	n/a	n/a	n/a	n/a	n/a	n/a	n/a
n/a	n/a	n/a	103	fixation	n/a	n/a	n/a	n/a	n/a	n/a	n/a	n/a	n/a	n/a
266.0564	0.1846	266.2411	104	word	irregular	low	pouls	0	n/a	5.06	5	2	1	3.1887
268.7361	0.1846	268.9207	105	word	regular	low	blaguer	1	0.6925	0.39	7	5	2	2.5849
n/a	n/a	n/a	106	fixation	n/a	n/a	n/a	n/a	n/a	n/a	n/a	n/a	n/a	n/a
273.7769	0.1854	273.9622	107	word	regular	high	onze	1	0.7039	25.58	4	2	1	3.434
276.136	0.2015	276.3375	108	checker	n/a	n/a	n/a	n/a	n/a	n/a	n/a	n/a	n/a	n/a
278.8176	0.1856	279.0032	109	word	regular	low	orangeade	1	0.778	0.94	9	6	3	4.0189
n/a	n/a	n/a	110	fixation	n/a	n/a	n/a	n/a	n/a	n/a	n/a	n/a	n/a	n/a
283.8566	0.1848	284.0414	111	word	irregular	low	orchidée	1	0.8169	0.87	8	6	3	4.7925
286.216	0.1855	286.4015	112	word	regular	low	parvis	1	0.958	3.58	6	5	2	3.9434
288.5969	0.1849	288.7819	113	word	regular	high	sorcier	1	0.744	5.87	7	6	2	4.5094
291.2568	0.1849	291.4417	114	word	regular	low	magma	1	0.6763	2.9	5	5	2	4.3774
293.6374	0.1849	293.8223	115	word	irregular	low	croc	1	0.8178	1.32	4	3	1	4.2264
295.9973	0.1853	296.1826	116	word	regular	low	échiquier	1	0.6984	2.61	9	6	3	4.9057
298.375	0.1849	298.5599	117	word	irregular	high	compte	1	0.8729	249.23	6	3	1	2.3208
n/a	n/a	n/a	118	fixation	n/a	n/a	n/a	n/a	n/a	n/a	n/a	n/a	n/a	n/a
303.4164	0.1849	303.6013	119	word	irregular	low	imper	1	0.7524	1.19	5	4	2	4.1887
305.795	0.1855	305.9805	120	word	regular	low	nef	1	0.6717	4.52	3	3	1	3.7925
308.4528	0.2013	308.6541	121	checker	n/a	n/a	n/a	n/a	n/a	n/a	n/a	n/a	n/a	n/a
310.8354	0.1847	311.0201	122	word	irregular	high	septième	1	0.7784	9.06	8	6	2	2.434
n/a	n/a	n/a	123	fixation	n/a	n/a	n/a	n/a	n/a	n/a	n/a	n/a	n/a	n/a
315.8752	0.1847	316.0598	124	word	irregular	high	super	1	0.8321	13.19	5	5	2	1.9245
318.5338	0.1846	318.7184	125	word	regular	low	daurade	1	0.7045	0.35	7	5	2	4.2642
320.9161	0.1848	321.101	126	word	irregular	high	hiver	1	0.6571	70.39	5	4	2	4.3208
323.5751	0.1848	323.76	127	word	regular	low	pastel	1	0.6243	1.74	6	6	2	3.7925
325.9545	0.1849	326.1394	128	word	irregular	high	baptême	1	0.7306	7.23	7	5	2	3.6981
328.6155	0.185	328.8005	129	word	regular	low	belette	1	0.7163	0.35	7	5	2	4.5094
n/a	n/a	n/a	130	fixation	n/a	n/a	n/a	n/a	n/a	n/a	n/a	n/a	n/a	n/a
333.3537	0.1849	333.5386	131	word	regular	high	balai	1	0.653	7.71	5	4	2	4.9057
336.0352	0.1849	336.22	132	word	irregular	high	cancer	1	0.6637	14.39	6	5	2	3.0943
338.3934	0.1862	338.5797	133	word	irregular	low	accroc	1	0.6023	1.52	6	4	2	2.717
340.7713	0.2016	340.9729	134	checker	n/a	n/a	n/a	n/a	n/a	n/a	n/a	n/a	n/a	n/a
n/a	n/a	n/a	135	fixation	n/a	n/a	n/a	n/a	n/a	n/a	n/a	n/a	n/a	n/a
346.1144	0.1848	346.2993	136	word	regular	high	flou	1	0.6567	6.32	4	3	1	3.4717
348.4727	0.2015	348.6742	137	checker	n/a	n/a	n/a	n/a	n/a	n/a	n/a	n/a	n/a	n/a
351.1536	0.1849	351.3385	138	word	irregular	high	éther	1	0.6811	7.26	5	4	2	2.4151
353.5142	0.1848	353.699	139	word	regular	high	carnet	1	0.6335	14.19	6	5	2	4.8302
356.1911	0.203	356.3941	140	checker	n/a	n/a	n/a	n/a	n/a	n/a	n/a	n/a	n/a	n/a
358.9527	0.1847	359.1375	141	word	irregular	high	poêle	1	0.6026	9.68	5	4	1	4.9057
361.3326	0.1846	361.5172	142	word	regular	high	encre	1	0.6987	18.19	5	3	1	4.5094
363.9926	0.1847	364.1773	143	word	regular	low	duo	1	0.7086	2.06	3	3	1	3.4528
366.3726	0.1848	366.5574	144	word	irregular	high	fusil	1	0.7116	22.39	5	4	2	4.9434
n/a	n/a	n/a	145	fixation	n/a	n/a	n/a	n/a	n/a	n/a	n/a	n/a	n/a	n/a
371.1137	0.1848	371.2985	146	word	irregular	high	moelle	1	0.6608	7.81	6	4	1	3.8868
373.4732	0.1857	373.6589	147	word	regular	high	masse	1	0.5964	91.52	5	4	1	3.0377
375.8525	0.1849	376.0374	148	word	regular	high	taper	1	0.6431	10	5	4	2	3.8113
378.2139	0.1849	378.3988	149	word	regular	low	bambou	1	0.6327	2.55	6	4	2	4.8679
n/a	n/a	n/a	150	fixation	n/a	n/a	n/a	n/a	n/a	n/a	n/a	n/a	n/a	n/a
382.972	0.1858	383.1578	151	word	irregular	low	mazout	1	0.6716	3.13	6	5	2	3.7358
385.633	0.1849	385.8179	152	word	regular	low	piloter	1	0.6596	1.19	7	6	3	3.5283
388.0125	0.1853	388.1978	153	word	regular	low	moisi	1	0.588	2.94	5	5	2	4.0189
n/a	n/a	n/a	154	fixation	n/a	n/a	n/a	n/a	n/a	n/a	n/a	n/a	n/a	n/a
n/a	n/a	n/a	155	fixation	n/a	n/a	n/a	n/a	n/a	n/a	n/a	n/a	n/a	n/a
395.7124	0.1848	395.8973	156	word	regular	high	boisson	1	0.6372	7.06	7	5	2	4.4151
398.0909	0.2015	398.2924	157	checker	n/a	n/a	n/a	n/a	n/a	n/a	n/a	n/a	n/a	n/a
400.4515	0.1849	400.6364	158	word	regular	high	hors	1	0.7316	88.74	4	2	1	1.8113
403.1327	0.1849	403.3176	159	word	irregular	low	cassis	1	0.7587	3.39	6	4	2	4.5283
405.7897	0.2016	405.9913	160	checker	n/a	n/a	n/a	n/a	n/a	n/a	n/a	n/a	n/a	n/a
n/a	n/a	n/a	161	fixation	n/a	n/a	n/a	n/a	n/a	n/a	n/a	n/a	n/a	n/a
n/a	n/a	n/a	162	fixation	n/a	n/a	n/a	n/a	n/a	n/a	n/a	n/a	n/a	n/a
413.5917	0.1846	413.7763	163	word	regular	low	trognon	1	0.656	1.13	7	5	2	4.6038
415.9716	0.1851	416.1567	164	word	regular	high	bureau	1	0.7647	97.77	6	4	2	4.7358
418.3503	0.1848	418.5351	165	word	regular	high	piège	1	0.677	13.39	5	4	1	3.7547
421.0102	0.1846	421.1949	166	word	regular	low	muret	1	0.7875	1.58	5	4	2	4.5472
423.388	0.2016	423.5896	167	checker	n/a	n/a	n/a	n/a	n/a	n/a	n/a	n/a	n/a	n/a
425.7499	0.1849	425.9348	168	word	regular	low	saule	1	0.6988	1.65	5	3	1	4.434
428.4309	0.185	428.6159	169	word	irregular	low	biceps	1	0.5808	1.9	6	6	2	4.4528
430.791	0.1851	430.9761	170	word	irregular	low	quartz	1	0.9363	5.35	6	6	1	3.5094
433.1703	0.1848	433.3551	171	word	irregular	low	pentagone	1	0.8037	0.87	9	7	3	4.6226
435.8311	0.1849	436.016	172	word	irregular	low	azimut	1	0.6656	0.48	6	6	3	1.6415
438.2096	0.2015	438.4111	173	checker	n/a	n/a	n/a	n/a	n/a	n/a	n/a	n/a	n/a	n/a
n/a	n/a	n/a	174	fixation	n/a	n/a	n/a	n/a	n/a	n/a	n/a	n/a	n/a	n/a
443.2493	0.1855	443.4348	175	word	regular	low	postal	1	0.6912	2.19	6	6	2	2.717
445.6103	0.185	445.7953	176	word	regular	low	preux	1	0.6296	1.71	5	3	1	2.1132
447.99	0.1856	448.1756	177	word	irregular	low	bacille	1	0.6531	1.74	7	5	2	3.0189
450.6506	0.1848	450.8355	178	word	irregular	low	damner	1	0.6394	0.42	6	4	2	1.7736
453.3308	0.1863	453.517	179	word	regular	high	revenant	1	0.5839	14.45	8	6	3	3.3019
455.6903	0.1856	455.8759	180	word	irregular	high	clef	1	0.764	24.13	4	3	1	4.9623
n/a	n/a	n/a	181	fixation	n/a	n/a	n/a	n/a	n/a	n/a	n/a	n/a	n/a	n/a
460.4502	0.1848	460.6351	182	word	regular	low	caboteur	1	0.7202	0.52	8	7	3	1.8302
462.8088	0.1847	462.9936	183	word	regular	low	bitume	1	0.5859	4.1	6	5	2	4
n/a	n/a	n/a	184	fixation	n/a	n/a	n/a	n/a	n/a	n/a	n/a	n/a	n/a	n/a
467.8482	0.1846	468.0328	185	word	regular	high	vice	1	0.7891	16.26	4	3	1	1.8302
470.5283	0.1847	470.713	186	word	irregular	high	million	1	0.5918	11.58	7	5	2	2.5283
473.1888	0.1846	473.3734	187	word	irregular	low	cacahuète	1	0.6427	0.39	9	7	3	4.8679
n/a	n/a	n/a	188	fixation	n/a	n/a	n/a	n/a	n/a	n/a	n/a	n/a	n/a	n/a
478.2291	0.1853	478.4144	189	word	regular	low	octroi	1	0.75	4.9	6	6	2	1.283
480.6087	0.1853	480.794	190	word	regular	high	meilleur	1	0.5885	52.32	8	5	2	2.1698
482.9686	0.1849	483.1534	191	word	regular	low	cursif	1	0.6935	0.23	6	6	2	1.6981
485.3492	0.1849	485.5341	192	word	regular	low	label	1	0.6633	0.87	5	5	2	2.4528
487.7088	0.1853	487.8941	193	word	irregular	high	amer	1	0.6168	8.23	4	4	2	2.1698
490.3865	0.2015	490.588	194	checker	n/a	n/a	n/a	n/a	n/a	n/a	n/a	n/a	n/a	n/a
492.7506	0.1849	492.9354	195	word	irregular	low	appendice	1	0.653	2.45	9	6	3	3.2075
495.1296	0.185	495.3146	196	word	irregular	low	bluffer	1	0.6813	0.35	7	5	2	2.0566
497.4878	0.1849	497.6726	197	word	irregular	high	huit	1	0.6176	116.03	4	3	1	3.7358
499.8686	0.1848	500.0535	198	word	irregular	high	porc	1	0.7424	7.84	4	3	1	4.9434
502.2487	0.1851	502.4338	199	word	regular	high	mer	1	0.5852	216.9	3	3	1	4.7925
504.6054	0.2018	504.8072	200	checker	n/a	n/a	n/a	n/a	n/a	n/a	n/a	n/a	n/a	n/a
506.987	0.1849	507.1718	201	word	regular	low	cloître	1	0.9522	4	7	6	1	3.9623
n/a	n/a	n/a	202	fixation	n/a	n/a	n/a	n/a	n/a	n/a	n/a	n/a	n/a	n/a
512.0276	0.1853	512.2129	203	word	irregular	low	oignon	1	0.8146	4.1	6	3	2	4.9811
514.3862	0.1846	514.5708	204	word	irregular	high	second	1	0.6836	95.42	6	4	2	2.7358
516.766	0.1847	516.9507	205	word	regular	high	venir	1	0.7961	126.16	5	5	2	2.3019
519.1464	0.1852	519.3317	206	word	regular	high	seul	1	0.6609	400.32	4	3	1	3.1132
521.5056	0.1847	521.6903	207	word	irregular	low	gin	1	0.7629	3.13	3	4	1	3.7925
524.1865	0.1846	524.3711	208	word	regular	low	caviar	1	0.6322	2.35	6	6	2	4.434
526.5476	0.1854	526.733	209	word	irregular	low	paon	1	0.7667	2.84	4	2	1	4.9057
n/a	n/a	n/a	210	fixation	n/a	n/a	n/a	n/a	n/a	n/a	n/a	n/a	n/a	n/a
531.8841	0.2015	532.0856	211	checker	n/a	n/a	n/a	n/a	n/a	n/a	n/a	n/a	n/a	n/a
534.5451	0.2016	534.7466	212	checker	n/a	n/a	n/a	n/a	n/a	n/a	n/a	n/a	n/a	n/a
537.2249	0.2016	537.4265	213	checker	n/a	n/a	n/a	n/a	n/a	n/a	n/a	n/a	n/a	n/a
539.6865	0.1849	539.8714	214	word	irregular	low	opus	1	0.6796	2.19	4	4	2	1.5849
542.0648	0.2015	542.2663	215	checker	n/a	n/a	n/a	n/a	n/a	n/a	n/a	n/a	n/a	n/a
544.4441	0.2017	544.6458	216	checker	n/a	n/a	n/a	n/a	n/a	n/a	n/a	n/a	n/a	n/a
546.8053	0.1856	546.991	217	word	irregular	high	examen	1	0.7557	58.74	6	6	3	3.434
549.4846	0.1848	549.6695	218	word	irregular	high	bourg	1	0.7194	10.23	5	3	1	3.5849
551.8458	0.1849	552.0306	219	word	regular	high	muscle	1	0.8769	7.26	6	5	1	4.3962
554.5257	0.1855	554.7112	220	word	regular	high	jaloux	1	0.8525	12.42	6	4	2	2.4151
556.8832	0.2015	557.0847	221	checker	n/a	n/a	n/a	n/a	n/a	n/a	n/a	n/a	n/a	n/a
559.5662	0.185	559.7511	222	word	irregular	high	déficit	1	0.857	11.84	7	7	3	1.8491
561.9272	0.185	562.1122	223	word	irregular	low	clerc	1	0.8164	4.52	5	4	1	3.2264
564.3063	0.1846	564.491	224	word	regular	high	fouet	1	0.7681	10.35	5	3	1	4.8491
566.9643	0.1846	567.1489	225	word	irregular	low	barman	1	0.6011	5.13	6	6	2	4.6792
569.3427	0.2013	569.544	226	checker	n/a	n/a	n/a	n/a	n/a	n/a	n/a	n/a	n/a	n/a
571.7032	0.202	571.9052	227	checker	n/a	n/a	n/a	n/a	n/a	n/a	n/a	n/a	n/a	n/a
574.0837	0.1846	574.2683	228	word	regular	high	képi	1	0.6524	6.52	4	4	2	4.6792
576.4458	0.1849	576.6308	229	word	regular	low	crin	1	0.7019	2.65	4	3	1	4.1887
578.8235	0.2017	579.0252	230	checker	n/a	n/a	n/a	n/a	n/a	n/a	n/a	n/a	n/a	n/a
n/a	n/a	n/a	231	fixation	n/a	n/a	n/a	n/a	n/a	n/a	n/a	n/a	n/a	n/a
n/a	n/a	n/a	232	fixation	n/a	n/a	n/a	n/a	n/a	n/a	n/a	n/a	n/a	n/a
586.2443	0.1849	586.4292	233	word	irregular	high	chaos	1	0.6758	9.13	5	3	2	2.6792
588.9042	0.1854	589.0896	234	word	irregular	high	monsieur	1	0.6499	192.97	8	5	2	3.9623
591.2816	0.2015	591.4832	235	checker	n/a	n/a	n/a	n/a	n/a	n/a	n/a	n/a	n/a	n/a
593.6445	0.1849	593.8294	236	word	regular	high	vert	1	1.0273	63.35	4	3	1	4.4717
596.0229	0.2015	596.2244	237	checker	n/a	n/a	n/a	n/a	n/a	n/a	n/a	n/a	n/a	n/a
598.3854	0.1848	598.5703	238	word	irregular	low	minus	1	0.6786	1.61	5	5	2	2.3208
600.7629	0.1849	600.9478	239	word	regular	high	cheval	1	0.7662	76.77	6	5	2	4.9623
603.1442	0.185	603.3293	240	word	regular	high	marin	1	0.6599	22.03	5	4	2	4.6226
605.5024	0.2015	605.7039	241	checker	n/a	n/a	n/a	n/a	n/a	n/a	n/a	n/a	n/a	n/a
607.8814	0.2025	608.0839	242	checker	n/a	n/a	n/a	n/a	n/a	n/a	n/a	n/a	n/a	n/a
610.2443	0.1849	610.4293	243	word	irregular	high	aiguille	1	0.6565	16.16	8	5	2	4.9057
612.9226	0.2016	613.1242	244	checker	n/a	n/a	n/a	n/a	n/a	n/a	n/a	n/a	n/a	n/a
615.5829	0.2013	615.7842	245	checker	n/a	n/a	n/a	n/a	n/a	n/a	n/a	n/a	n/a	n/a
n/a	n/a	n/a	246	fixation	n/a	n/a	n/a	n/a	n/a	n/a	n/a	n/a	n/a	n/a
620.6224	0.1846	620.807	247	word	irregular	high	sens	1	0.9359	335.77	4	2	1	2.0755
623.3018	0.2014	623.5032	248	checker	n/a	n/a	n/a	n/a	n/a	n/a	n/a	n/a	n/a	n/a
n/a	n/a	n/a	249	fixation	n/a	n/a	n/a	n/a	n/a	n/a	n/a	n/a	n/a	n/a
628.0425	0.1849	628.2274	250	word	regular	high	﻿abri	1	0.6622	35.52	4	4	2	4
630.7022	0.2015	630.9037	251	checker	n/a	n/a	n/a	n/a	n/a	n/a	n/a	n/a	n/a	n/a
n/a	n/a	n/a	252	fixation	n/a	n/a	n/a	n/a	n/a	n/a	n/a	n/a	n/a	n/a
636.0404	0.2015	636.2419	253	checker	n/a	n/a	n/a	n/a	n/a	n/a	n/a	n/a	n/a	n/a
638.4199	0.2015	638.6214	254	checker	n/a	n/a	n/a	n/a	n/a	n/a	n/a	n/a	n/a	n/a
641.0826	0.1852	641.2678	255	word	irregular	low	parasol	1	0.9467	2.32	7	7	3	4.8679
643.461	0.2025	643.6635	256	checker	n/a	n/a	n/a	n/a	n/a	n/a	n/a	n/a	n/a	n/a
645.8226	0.1849	646.0075	257	word	irregular	low	transit	1	0.622	4.03	7	5	2	2.3208
n/a	n/a	n/a	258	fixation	n/a	n/a	n/a	n/a	n/a	n/a	n/a	n/a	n/a	n/a
n/a	n/a	n/a	259	fixation	n/a	n/a	n/a	n/a	n/a	n/a	n/a	n/a	n/a	n/a
652.943	0.1864	653.1293	260	word	irregular	high	gentil	1	0.8531	22.65	6	4	2	2.434
655.3216	0.185	655.5066	261	word	irregular	high	femme	1	0.9362	400.52	5	3	1	4.8302
n/a	n/a	n/a	262	fixation	n/a	n/a	n/a	n/a	n/a	n/a	n/a	n/a	n/a	n/a
660.0623	0.185	660.2473	263	word	irregular	low	pastis	1	0.6964	2.55	6	6	2	4.4151
662.7223	0.1849	662.9071	264	word	irregular	high	revolver	1	0.8351	14.9	8	8	3	4.8302
665.4622	0.1848	665.647	265	word	irregular	low	aquarelle	1	0.8053	3.35	9	7	3	4.3019
668.1617	0.1846	668.3463	266	word	regular	low	cocon	1	0.8178	2.03	5	4	2	4.3208
670.52	0.1846	670.7046	267	word	irregular	low	transat	1	0.81	0.52	7	6	2	4.6226
673.1989	0.1846	673.3836	268	word	regular	low	astronome	1	0.8034	2.42	9	8	3	4.0189
675.5597	0.1846	675.7443	269	word	irregular	low	papaye	1	0.7318	0.06	6	5	2	4.3208
678.2409	0.1856	678.4265	270	word	regular	high	aveu	1	0.8445	10.52	4	3	2	1.6226
680.6001	0.185	680.7851	271	word	regular	high	nul	1	0.8068	55.1	3	3	1	2.2642
683.2813	0.1851	683.4665	272	word	regular	high	forêt	1	0.8128	72.39	5	4	2	4.8679
685.9413	0.1853	686.1266	273	word	regular	high	bleu	1	0.7608	99.03	4	3	1	4.6226
688.3196	0.1849	688.5045	274	word	irregular	high	août	1	0.7666	37.77	4	2	1	2.7358
690.9806	0.1852	691.1657	275	word	irregular	low	coyote	1	0.8147	0.35	6	5	2	4.3774
693.3598	0.2015	693.5613	276	checker	n/a	n/a	n/a	n/a	n/a	n/a	n/a	n/a	n/a	n/a
n/a	n/a	n/a	277	fixation	n/a	n/a	n/a	n/a	n/a	n/a	n/a	n/a	n/a	n/a
698.1009	0.1849	698.2858	278	word	regular	high	papillon	1	0.8668	13.03	8	6	3	4.9434
700.481	0.185	700.666	279	word	regular	low	pneumonie	1	0.7536	1.13	9	7	3	2.8868
703.1407	0.1849	703.3256	280	word	regular	high	coeur	1	0.8652	274.94	5	3	1	4.7547
705.5183	0.2016	705.7199	281	checker	n/a	n/a	n/a	n/a	n/a	n/a	n/a	n/a	n/a	n/a
n/a	n/a	n/a	282	fixation	n/a	n/a	n/a	n/a	n/a	n/a	n/a	n/a	n/a	n/a
710.2593	0.1853	710.4446	283	word	regular	high	aise	1	0.7075	31.45	4	2	1	1.6038
712.9187	0.1849	713.1036	284	word	regular	low	ordure	1	0.8889	5.39	6	5	2	4.2075
715.2997	0.1849	715.4845	285	word	regular	high	approche	1	0.8025	42.68	8	5	2	1.7736
717.6597	0.1851	717.8448	286	word	regular	low	aval	1	0.7328	4.03	4	4	2	2.3585
720.0381	0.1847	720.2229	287	word	regular	low	trachée	1	0.8463	1.03	7	5	2	4.0189
722.4189	0.1855	722.6044	288	word	regular	low	faucon	1	0.9009	1.58	6	4	2	4.8113
