onset	duration	offset	block	task	trial	lexicality	congruency	stimulus	stimulus_spaced	correct	response_time	word_freq	nb_letters	nb_phonemes	ratio	nb_syllables
0.24483083288942	5	5.24483083288942	3	instructions lexical decision	n/a	n/a	n/a	n/a	n/a	n/a	n/a	n/a	n/a	n/a	n/a	n/a
10.4255	0.2014	10.6269	3	lexical decision	1	pseudoword	incongruent	chaimmant	c ha imma nt	1	0.7913	n/a	9	4	2.25	2
12.7946	0.2013	12.9959	3	lexical decision	2	pseudoword	congruent	saillaîte	s a ill aî te	1	0.7031	n/a	9	5	1.8	2
15.1799	0.2013	15.3812	3	lexical decision	3	pseudoword	incongruent	ceinritin	c ei nr i ti n	1	0.7119	n/a	9	6	1.5	3
17.5367	0.2013	17.738	3	lexical decision	4	word	incongruent	gloussant	g lo us sa nt	1	0.709	0.54	9	5	1.8	2
22.5166	0.2015	22.7182	3	lexical decision	5	pseudoword	congruent	enteuillon	en t eu ill on	1	0.721	n/a	10	5	2	3
25.1513	0.2016	25.3529	3	lexical decision	6	word	congruent	boeuf	b oeu f	1	0.6702	21.01	5	3	1.667	1
27.8114	0.2022	28.0137	3	lexical decision	7	word	incongruent	chauffeur	c ha uf fe ur	1	0.6091	49.86	9	5	1.8	2
30.4701	0.2015	30.6716	3	lexical decision	8	pseudoword	incongruent	ennaitose	e nn a it o se	1	0.7243	n/a	9	6	1.5	3
37.4577	0.2025	37.6603	3	lexical decision	9	word	congruent	confondant	c on f on d ant	1	0.7137	0.95	10	6	1.667	3
39.8691	0.202	40.0711	3	lexical decision	10	word	incongruent	souhait	so uha it	1	0.7182	8.65	7	3	2.333	1
42.2315	0.2016	42.4331	3	lexical decision	11	word	incongruent	offensant	o ffe ns a nt	1	0.9778	1.01	9	5	1.8	3
47.2157	0.2015	47.4172	3	lexical decision	12	word	congruent	trousseau	t r ou ss eau	1	0.7056	5.95	9	5	1.8	2
49.5518	0.2015	49.7533	3	lexical decision	13	word	incongruent	bâillement	b âi ll e me nt	1	0.6484	4.19	10	6	1.667	3
52.2329	0.2015	52.4345	3	lexical decision	14	word	congruent	endeuillée	en d eu ill ée	0	1.5712	1.35	10	5	2	3
54.8922	0.2015	55.0936	3	lexical decision	15	word	congruent	inventeur	in v en t eu r	1	0.8019	2.03	9	6	1.5	3
59.5935	0.2021	59.7956	3	lexical decision	16	word	incongruent	honteuse	ho n te use	1	0.6916	22.3	8	4	2	2
61.9916	0.2013	62.1929	3	lexical decision	17	pseudoword	incongruent	fangueuse	fa ng ue u se	1	0.9374	n/a	9	5	1.8	2
64.672	0.2017	64.8737	3	lexical decision	18	pseudoword	incongruent	ovougeade	o vo u g ea de	1	0.74	n/a	9	6	1.5	3
67.3094	0.2013	67.5107	3	lexical decision	19	word	incongruent	bondissant	bo n d is sa nt	1	0.6915	2.77	10	6	1.667	3
69.7054	0.2018	69.9072	3	lexical decision	20	pseudoword	congruent	cheue	ch eue	1	0.9844	n/a	5	2	2.5	1
72.083	0.2014	72.2844	3	lexical decision	21	pseudoword	incongruent	chetant	c he tan t	1	0.8158	n/a	7	4	1.75	2
74.4495	0.2016	74.6511	3	lexical decision	22	pseudoword	incongruent	orrigninse	o r ri gni n se	1	1.3132	n/a	10	6	1.667	3
76.8571	0.2016	77.0588	3	lexical decision	23	pseudoword	congruent	guessier	gu e ss i er	0	0.8416	n/a	8	5	1.6	2
79.4894	0.2016	79.691	3	lexical decision	24	word	incongruent	poignant	po ig na nt	1	0.5834	6.22	8	5	1.6	2
81.8712	0.2018	82.073	3	lexical decision	25	pseudoword	incongruent	ingutient	i ng u t ie nt	1	0.7745	n/a	9	6	1.5	3
86.5351	0.2023	86.7374	3	lexical decision	26	pseudoword	congruent	conteilant	c on t ei l ant	1	0.8215	n/a	10	6	1.667	3
88.9407	0.2015	89.1422	3	lexical decision	27	pseudoword	incongruent	entouillé	e n to ui llé	1	0.7649	n/a	9	5	1.8	3
91.3467	0.2016	91.5483	3	lexical decision	28	pseudoword	congruent	hulour	hu l our	1	0.8369	n/a	6	4	1.5	2
93.73	0.2017	93.9317	3	lexical decision	29	pseudoword	congruent	combache	c om b a che	1	1.0384	n/a	8	5	1.6	2
96.0889	0.2015	96.2904	3	lexical decision	30	word	incongruent	penseuse	pe n se use	1	1.0896	3.92	8	5	1.6	2
101.0746	0.2015	101.2761	3	lexical decision	31	pseudoword	incongruent	pranquain	pra n q ua in	1	0.9139	n/a	9	5	1.8	2
103.4058	0.2015	103.6073	3	lexical decision	32	pseudoword	incongruent	jinge	ji ng e	1	0.8696	n/a	5	3	1.667	1
106.0683	0.2016	106.2699	3	lexical decision	33	pseudoword	incongruent	tanchant	ta nc ha nt	0	0.9001	n/a	8	4	2	2
111.0548	0.2015	111.2564	3	lexical decision	34	word	congruent	louveteau	l ou v e t eau	1	0.7875	2.36	9	6	1.5	3
113.3872	0.2015	113.5887	3	lexical decision	35	word	congruent	étouffant	é t ou ff ant	1	0.5791	7.97	9	5	1.8	3
115.7652	0.2018	115.967	3	lexical decision	36	pseudoword	congruent	fairche	f ai r che	1	0.736	n/a	7	4	1.75	1
118.126	0.2014	118.3274	3	lexical decision	37	pseudoword	incongruent	loueuge	lo ue ug e	1	0.6662	n/a	7	4	1.75	1
123.1096	0.2013	123.3109	3	lexical decision	38	word	congruent	audience	au d i en ce	1	0.8525	9.53	8	5	1.6	2
125.4497	0.2015	125.6512	3	lexical decision	39	word	congruent	continent	c on t i n ent	1	0.7613	15.95	9	6	1.5	3
128.1067	0.2016	128.3083	3	lexical decision	40	word	congruent	emphase	em ph a se	1	0.8994	5.27	7	4	1.75	2
130.4868	0.2017	130.6885	3	lexical decision	41	pseudoword	congruent	cauchette	c au ch ette	1	1.0152	n/a	9	5	1.8	2
133.1498	0.2015	133.3512	3	lexical decision	42	word	incongruent	flambeau	f la mb ea u	1	0.7022	7.09	8	5	1.6	2
135.528	0.2015	135.7295	3	lexical decision	43	pseudoword	congruent	mouquon	m ou qu on	1	0.8009	n/a	7	4	1.75	2
138.186	0.2019	138.3878	3	lexical decision	44	word	congruent	fauteuil	f au t euil	1	0.632	102.03	8	5	1.6	2
140.5658	0.2016	140.7673	3	lexical decision	45	word	incongruent	neuve	ne u ve	1	0.657	113.18	5	3	1.667	1
142.9438	0.2016	143.1454	3	lexical decision	46	word	congruent	gourmande	g ou r m an de	1	0.6121	9.86	9	6	1.5	2
145.3072	0.2015	145.5088	3	lexical decision	47	pseudoword	congruent	consouse	c on s ou se	1	0.7916	n/a	8	5	1.6	2
147.6914	0.2016	147.893	3	lexical decision	48	pseudoword	congruent	sougnemain	s ou gn e m ain	1	0.8553	n/a	10	6	1.667	3
152.6501	0.202	152.852	3	lexical decision	49	word	congruent	poussin	p ou ss in	1	0.6685	3.04	7	4	1.75	2
154.9847	0.2015	155.1862	3	lexical decision	50	word	congruent	tombant	t om b ant	1	0.608	9.12	7	4	1.75	2
157.3644	0.2021	157.5665	3	lexical decision	51	pseudoword	congruent	condein	c on d ein	1	0.6482	n/a	7	4	1.75	2
159.6891	0.2016	159.8907	3	lexical decision	52	word	incongruent	abaissant	a ba is sa nt	1	0.8665	0.27	9	5	1.8	3
162.0071	0.2019	162.209	3	lexical decision	53	word	congruent	couveuse	c ou v eu se	1	0.7654	0.95	8	5	1.6	2
164.4182	0.2013	164.6195	3	lexical decision	54	word	incongruent	fourneau	fo ur n ea u	1	0.7523	15.34	8	5	1.6	2
166.745	0.2013	166.9463	3	lexical decision	55	pseudoword	incongruent	fourmand	fo ur m a nd	1	0.8345	n/a	8	5	1.6	2
169.4245	0.2015	169.626	3	lexical decision	56	pseudoword	incongruent	alaissée	a la is s ée	0	0.9618	n/a	8	5	1.6	3
174.3868	0.2013	174.5881	3	lexical decision	57	word	incongruent	faussaire	fa us sa i re	0	0.8465	1.35	9	5	1.8	2
176.7275	0.2015	176.929	3	lexical decision	58	word	incongruent	fainéante	fa in é a nt e	1	0.9308	1.89	9	6	1.5	3
179.1062	0.2015	179.3076	3	lexical decision	59	pseudoword	congruent	encheupée	en ch eu p ée	1	0.766	n/a	9	5	1.8	3
181.4981	0.2015	181.6996	3	lexical decision	60	word	congruent	repoussant	r e p ou ss ant	1	0.8312	2.57	10	6	1.667	3
183.8457	0.2015	184.0472	3	lexical decision	61	word	incongruent	intendant	i nte n da nt	1	0.8665	4.73	9	5	1.8	3
186.5393	0.2016	186.7409	3	lexical decision	62	pseudoword	congruent	souson	s ou s on	1	0.8308	n/a	6	4	1.5	2
188.8859	0.2015	189.0875	3	lexical decision	63	word	congruent	dansant	d an s ant	1	0.7362	6.89	7	4	1.75	2
191.5677	0.2016	191.7693	3	lexical decision	64	pseudoword	congruent	enquandée	en qu an d ée	1	0.9624	n/a	9	5	1.8	3
194.2232	0.2029	194.4261	3	lexical decision	65	pseudoword	congruent	bonlant	b on l ant	1	0.7738	n/a	7	4	1.75	2
196.604	0.2016	196.8057	3	lexical decision	66	pseudoword	incongruent	condant	co nd an t	1	0.794	n/a	7	4	1.75	2
201.2709	0.2016	201.4725	3	lexical decision	67	pseudoword	congruent	tronchalle	t r on ch a lle	1	0.949	n/a	10	6	1.667	2
203.6066	0.2018	203.8084	3	lexical decision	68	pseudoword	congruent	chirquance	ch i r qu an ce	1	0.9674	n/a	10	6	1.667	2
206.284	0.2015	206.4855	3	lexical decision	69	pseudoword	incongruent	haillai	h ai lla i	1	0.9428	n/a	7	3	2.333	2
208.9439	0.2017	209.1456	3	lexical decision	70	pseudoword	congruent	élanffant	é l an ff ant	1	0.891	n/a	9	5	1.8	3
211.6415	0.2015	211.843	3	lexical decision	71	word	congruent	envieuse	en v i eu se	1	0.7602	1.76	8	5	1.6	2
213.9849	0.2016	214.1865	3	lexical decision	72	pseudoword	congruent	banquace	b an qu a ce	1	1.3407	n/a	8	5	1.6	2
216.6578	0.2013	216.8591	3	lexical decision	73	pseudoword	congruent	châssin	ch â ss in	1	1.4538	n/a	7	4	1.75	2
219.0213	0.2014	219.2227	3	lexical decision	74	pseudoword	incongruent	loutte	lo ut te	1	1.2653	n/a	6	3	2	1
221.4094	0.2014	221.6108	3	lexical decision	75	word	incongruent	hargneuse	h ar g ne use	1	0.9732	9.46	9	5	1.8	2
223.763	0.2013	223.9643	3	lexical decision	76	word	congruent	saison	s ai s on	1	0.5787	49.59	6	4	1.5	2
226.1432	0.2015	226.3446	3	lexical decision	77	word	congruent	intension	in t en s i on	1	0.9163	0	9	6	1.5	3
228.8034	0.2022	229.0057	3	lexical decision	78	word	congruent	enchaînée	en ch aî n ée	1	0.6351	3.11	9	5	1.8	3
231.1817	0.2016	231.3833	3	lexical decision	79	pseudoword	incongruent	queute	que u te	1	0.7158	n/a	6	3	2	1
233.5822	0.2024	233.7846	3	lexical decision	80	pseudoword	incongruent	preinte	pr ei n te	1	0.8633	n/a	7	4	1.75	1
238.5264	0.2015	238.7279	3	lexical decision	81	word	incongruent	beignet	be ig ne t	1	0.6579	2.77	7	4	1.75	2
245.4709	0.2016	245.6725	3	lexical decision	82	pseudoword	incongruent	nonte	no n te	1	0.6904	n/a	5	3	1.667	1
247.8836	0.2015	248.0852	3	lexical decision	83	word	incongruent	endeuillé	e n de ui llé	1	0.6487	1.35	9	5	1.8	3
250.2449	0.2016	250.4465	3	lexical decision	84	pseudoword	congruent	mounnon	m ou nn on	1	0.7132	n/a	7	4	1.75	2
252.6224	0.2016	252.824	3	lexical decision	85	word	incongruent	araignée	a ra ig n ée	1	0.6228	17.84	8	5	1.6	3
255.0037	0.2018	255.2055	3	lexical decision	86	pseudoword	incongruent	noussante	no us sa n te	1	0.8704	n/a	9	5	1.8	2
257.3638	0.2016	257.5654	3	lexical decision	87	pseudoword	incongruent	choupache	c ho up ac he	1	1.2403	n/a	9	5	1.8	2
260.026	0.2015	260.2275	3	lexical decision	88	word	congruent	conjoint	c on j oint	1	0.62	0.95	8	5	1.6	2
262.4014	0.2017	262.6031	3	lexical decision	89	pseudoword	incongruent	soussant	so us sa nt	1	0.7577	n/a	8	4	2	2
267.0864	0.2015	267.2878	3	lexical decision	90	pseudoword	incongruent	élignant	él ig na n t	1	0.9864	n/a	8	5	1.6	3
269.4204	0.2013	269.6217	3	lexical decision	91	word	congruent	bandeau	b an d eau	1	0.6956	6.49	7	4	1.75	2
272.1005	0.2012	272.3017	3	lexical decision	92	pseudoword	congruent	treussant	t r eu ss ant	1	0.7093	n/a	9	5	1.8	2
282.2717	0.2021	282.4738	3	lexical decision	93	word	congruent	fourreau	f ou rr eau	0	1.1621	4.32	8	4	2	2
284.9413	0.2016	285.1429	3	lexical decision	94	pseudoword	incongruent	traichant	t ra ic ha nt	1	0.8873	n/a	9	5	1.8	2
287.3198	0.2015	287.5214	3	lexical decision	95	word	congruent	desséchant	d e ss é ch ant	1	0.6558	0.2	10	6	1.667	3
289.6835	0.2017	289.8853	3	lexical decision	96	pseudoword	congruent	choucetant	ch ou c e t ant	1	0.7621	n/a	10	6	1.667	3
292.3626	0.2017	292.5643	3	lexical decision	97	word	incongruent	vendange	ve n da n ge	1	0.819	3.38	8	5	1.6	2
294.7182	0.2021	294.9203	3	lexical decision	98	pseudoword	incongruent	soeud	soe ud	1	0.6634	n/a	5	2	2.5	1
297.1018	0.2017	297.3035	3	lexical decision	99	word	congruent	saillante	s a ill an te	1	0.5736	10.07	9	5	1.8	2
299.4614	0.2015	299.6629	3	lexical decision	100	pseudoword	congruent	eussopie	eu ss o p ie	1	0.7311	n/a	8	5	1.6	3
302.1396	0.2016	302.3412	3	lexical decision	101	pseudoword	congruent	enchose	en ch o se	1	0.8187	n/a	7	4	1.75	2
304.8006	0.2016	305.0022	3	lexical decision	102	word	incongruent	rengaine	re ng a in e	1	0.7958	4.59	8	5	1.6	2
307.5075	0.2018	307.7093	3	lexical decision	103	pseudoword	incongruent	harcheuse	h ar c he use	1	0.9529	n/a	9	5	1.8	2
309.8404	0.2015	310.0419	3	lexical decision	104	pseudoword	congruent	pausson	p au ss on	1	0.707	n/a	7	4	1.75	2
312.221	0.2015	312.4226	3	lexical decision	105	word	incongruent	ceinturon	c ei nt u ro n	1	0.8052	7.23	9	6	1.5	3
317.1828	0.2017	317.3846	3	lexical decision	106	word	congruent	lambeau	l am b eau	1	0.6183	14.26	7	4	1.75	2
319.5185	0.2014	319.7199	3	lexical decision	107	word	congruent	chignon	ch i gn on	1	0.6027	12.77	7	4	1.75	2
324.5033	0.2013	324.7046	3	lexical decision	108	word	congruent	quinzaine	qu in z ai ne	1	0.5669	11.89	9	5	1.8	2
329.4439	0.202	329.6459	3	lexical decision	109	word	incongruent	balluchon	b all uc ho n	1	0.9371	0.54	9	6	1.5	3
331.7799	0.2016	331.9814	3	lexical decision	110	word	incongruent	impatient	i mp a t ie nt	1	0.6292	16.76	9	6	1.5	3
334.4582	0.2017	334.6599	3	lexical decision	111	pseudoword	incongruent	offouzant	o ffo uz a nt	1	0.7448	n/a	9	5	1.8	3
336.8191	0.2016	337.0207	3	lexical decision	112	pseudoword	congruent	leireux	l ei r eux	1	0.8639	n/a	7	4	1.75	2
339.4384	0.2017	339.6401	3	lexical decision	113	word	incongruent	bambou	ba m bo u	1	0.6515	6.15	6	4	1.5	2
341.7559	0.2023	341.9582	3	lexical decision	114	word	incongruent	aile	a ile	1	0.6191	60.47	4	2	2	1
344.4391	0.2015	344.6407	3	lexical decision	115	pseudoword	incongruent	moupeau	mo u pea u	1	0.9247	n/a	7	4	1.75	2
347.099	0.2016	347.3006	3	lexical decision	116	word	incongruent	gagnant	g ag na nt	1	0.6697	1.89	7	4	1.75	2
349.7605	0.2016	349.9621	3	lexical decision	117	pseudoword	congruent	goubroune	g ou b r ou ne	1	0.8522	n/a	9	6	1.5	2
357.0473	0.2015	357.2488	3	lexical decision	118	word	incongruent	entourage	e nt o ur a ge	1	0.6173	10.74	9	6	1.5	3
359.4164	0.2021	359.6185	3	lexical decision	119	word	congruent	manchot	m an ch ot	1	0.6382	1.89	7	4	1.75	2
361.8189	0.2016	362.0205	3	lexical decision	120	word	incongruent	chauffant	c ha uffa nt	1	0.6156	0.41	9	4	2.25	2
372.61256834527	5	377.61256834527	4	instructions reading aloud	n/a	n/a	n/a	n/a	n/a	n/a	n/a	n/a	n/a	n/a	n/a	n/a
382.7747	0.2013	382.976	4	reading aloud	1	pseudoword	incongruent	taigeanse	ta ig ea ns e	0	n/a	n/a	9	5	1.8	2
385.2396	0.2015	385.4411	4	reading aloud	2	pseudoword	congruent	ascenmien	a sc en m i en	1	0.728	n/a	9	6	1.5	3
387.615	0.2015	387.8166	4	reading aloud	3	word	congruent	singe	s in ge	1	0.5827	22.57	5	3	1.667	1
389.9754	0.2016	390.177	4	reading aloud	4	word	congruent	hautain	hau t ain	1	0.6386	10.88	7	3	2.333	2
392.3594	0.2017	392.5611	4	reading aloud	5	word	congruent	encombrant	en c om b r ant	0	n/a	6.08	10	6	1.667	3
394.7363	0.2019	394.9381	4	reading aloud	6	pseudoword	congruent	minchant	m in ch ant	1	0.6135	n/a	8	4	2	2
397.3971	0.2015	397.5986	4	reading aloud	7	word	incongruent	planche	p la nc he	1	0.6272	41.55	7	4	1.75	1
400.0588	0.2019	400.2608	4	reading aloud	8	pseudoword	congruent	ensaiement	en s aie m ent	1	0.5945	n/a	10	5	2	3
402.7356	0.2025	402.9381	4	reading aloud	9	pseudoword	congruent	seuge	s eu ge	1	0.5508	n/a	5	3	1.667	1
405.0957	0.2016	405.2973	4	reading aloud	10	word	incongruent	néant	n éa nt	1	0.6477	23.99	5	3	1.667	2
407.4752	0.2019	407.6771	4	reading aloud	11	word	incongruent	chou	c ho u	1	0.5693	21.96	4	2	2	1
409.8557	0.2015	410.0571	4	reading aloud	12	pseudoword	congruent	graie	g r aie	1	0.6468	n/a	5	3	1.667	1
412.316	0.2015	412.5175	4	reading aloud	13	word	incongruent	chanson	c ha nso n	1	0.665	46.55	7	4	1.75	2
414.6969	0.2016	414.8985	4	reading aloud	14	pseudoword	incongruent	sonronnant	so nr o n na nt	1	0.628	n/a	10	6	1.667	3
417.3566	0.2016	417.5582	4	reading aloud	15	word	congruent	émouvante	é m ou v an te	1	0.6148	14.05	9	6	1.5	3
422.3383	0.202	422.5403	4	reading aloud	16	word	congruent	hauteur	hau t eur	1	0.6273	77.7	7	4	1.75	2
424.9763	0.2013	425.1776	4	reading aloud	17	word	incongruent	ignorance	ig no ra n c e	1	0.5777	16.82	9	6	1.5	3
427.3343	0.2013	427.5355	4	reading aloud	18	word	congruent	manchette	m an ch ette	1	0.5983	6.22	9	5	1.8	2
429.715	0.2026	429.9176	4	reading aloud	19	word	congruent	guirlande	gu i r l an de	1	0.6465	9.05	9	6	1.5	2
432.0736	0.2013	432.2748	4	reading aloud	20	pseudoword	incongruent	assagnin	as sa gni n	1	0.6531	n/a	8	5	1.6	3
434.4552	0.2012	434.6564	4	reading aloud	21	pseudoword	congruent	baiffier	b ai ff i er	1	0.6615	n/a	8	5	1.6	2
436.8343	0.2015	437.0359	4	reading aloud	22	word	incongruent	vraie	vra ie	1	0.6344	430.07	5	3	1.667	1
439.1942	0.2021	439.3963	4	reading aloud	23	pseudoword	congruent	mégnant	m é gn ant	1	0.5644	n/a	7	4	1.75	2
441.5741	0.2017	441.7758	4	reading aloud	24	pseudoword	incongruent	aivant	a iva nt	1	0.7288	n/a	6	3	2	2
444.3355	0.2015	444.537	4	reading aloud	25	word	incongruent	teigneuse	te ig ne us e	1	0.6513	2.84	9	5	1.8	2
446.7126	0.2017	446.9143	4	reading aloud	26	word	incongruent	quai	qua i	1	0.6511	73.99	4	2	2	1
449.0766	0.2015	449.2781	4	reading aloud	27	pseudoword	incongruent	tanquanse	ta nq ua n se	1	0.658	n/a	9	5	1.8	2
456.6625	0.2025	456.865	4	reading aloud	28	word	incongruent	branche	b ra nc he	1	0.6121	85.61	7	4	1.75	1
459.0523	0.2015	459.2538	4	reading aloud	29	word	congruent	coupon	c ou p on	1	0.6889	2.09	6	4	1.5	2
461.4342	0.2017	461.6358	4	reading aloud	30	pseudoword	congruent	taison	t ai s on	1	0.6569	n/a	6	4	1.5	2
471.3066	0.2016	471.5082	4	reading aloud	31	word	incongruent	angoissant	a ngo is sa nt	1	0.8074	4.19	10	6	1.667	3
473.6944	0.202	473.8964	4	reading aloud	32	pseudoword	incongruent	naidant	na id an t	1	0.5863	n/a	7	4	1.75	2
478.6601	0.2018	478.8618	4	reading aloud	33	word	incongruent	dénouement	d én o ue me nt	1	0.5443	4.05	10	6	1.667	3
480.9923	0.2013	481.1936	4	reading aloud	34	pseudoword	incongruent	maillouge	ma i llo ug e	1	0.5945	n/a	9	5	1.8	2
483.3707	0.2013	483.572	4	reading aloud	35	word	congruent	avant	a v ant	1	0.6034	21.35	5	3	1.667	2
486.0322	0.2013	486.2335	4	reading aloud	36	pseudoword	incongruent	dapheau	da p hea u	1	0.6775	n/a	7	4	1.75	2
491.0176	0.2015	491.2191	4	reading aloud	37	word	congruent	rousse	r ou sse	1	0.6808	40.41	6	3	2	1
493.3536	0.2015	493.5551	4	reading aloud	38	word	incongruent	rouleau	ro ul ea u	1	0.666	19.19	7	4	1.75	2
495.7342	0.2015	495.9358	4	reading aloud	39	word	incongruent	arrangeant	a rra ng ea nt	1	0.6065	0.47	10	5	2	3
498.3967	0.2016	498.5983	4	reading aloud	40	word	incongruent	impuissant	i m pu i ssa nt	1	0.5951	11.55	10	6	1.667	3
501.0538	0.2016	501.2554	4	reading aloud	41	pseudoword	congruent	guirboude	gu i r b ou de	1	0.6568	n/a	9	6	1.5	2
503.4305	0.2015	503.6321	4	reading aloud	42	pseudoword	congruent	haumeur	hau m eur	1	0.6333	n/a	7	4	1.75	2
505.8149	0.2016	506.0165	4	reading aloud	43	word	congruent	insouciant	in s ou c i ant	1	0.6456	6.55	10	6	1.667	3
510.8783	0.2018	511.0801	4	reading aloud	44	pseudoword	congruent	encansin	en c an s in 	1	0.6167	n/a	8	5	1.6	3
513.6119	0.2017	513.8136	4	reading aloud	45	pseudoword	incongruent	ranfant	ra nf a nt	1	0.6005	n/a	7	4	1.75	2
515.9708	0.2019	516.1727	4	reading aloud	46	word	congruent	ancien	an c i en	1	0.5579	154.86	6	4	1.5	2
518.3533	0.2015	518.5548	4	reading aloud	47	pseudoword	incongruent	chochoute	c ho c ho u te	0	n/a	n/a	9	5	1.8	2
521.0146	0.202	521.2166	4	reading aloud	48	word	incongruent	constante	co n st a nt e	1	0.6762	16.82	9	6	1.5	2
523.3901	0.2021	523.5921	4	reading aloud	49	word	incongruent	coût	co ût	1	0.7376	1.35	4	2	2	1
525.7714	0.2037	525.9751	4	reading aloud	50	pseudoword	incongruent	invrant	i nv ra nt	1	0.5974	n/a	7	4	1.75	2
528.1296	0.2013	528.3309	4	reading aloud	51	pseudoword	congruent	adait	a d ait	1	0.6599	n/a	5	3	1.667	2
530.5087	0.2017	530.7104	4	reading aloud	52	pseudoword	incongruent	éphon	ép ho n	1	0.6561	n/a	5	3	1.667	2
533.1708	0.202	533.3728	4	reading aloud	53	word	congruent	outrance	ou t r an ce	1	0.6089	3.51	8	5	1.6	2
535.8511	0.2013	536.0524	4	reading aloud	54	word	congruent	pamphlet	p am ph l et	1	0.7467	1.42	8	5	1.6	2
540.8181	0.2015	541.0196	4	reading aloud	55	pseudoword	incongruent	inchuitain	i nc hu i ta in	1	0.9149	n/a	10	6	1.667	3
543.251	0.2015	543.4525	4	reading aloud	56	pseudoword	incongruent	banquin	ba nq ui n	1	0.718	n/a	7	4	1.75	2
545.9325	0.2015	546.134	4	reading aloud	57	pseudoword	incongruent	serchouffe	s e rc ho uff e	1	0.7166	n/a	10	6	1.667	2
548.2909	0.2016	548.4925	4	reading aloud	58	pseudoword	incongruent	antoiffant	a nto if fa nt	1	0.7313	n/a	10	6	1.667	3
550.6689	0.2029	550.8717	4	reading aloud	59	word	congruent	agneau	a gn eau	1	0.5827	8.78	6	3	2	2
553.3297	0.2021	553.5318	4	reading aloud	60	pseudoword	incongruent	chousou	c ho uso u	0	n/a	n/a	7	4	1.75	2
558.3136	0.2015	558.5151	4	reading aloud	61	word	incongruent	essai	es sa i	1	0.5696	14.86	5	3	1.667	2
560.7538	0.2017	560.9555	4	reading aloud	62	pseudoword	incongruent	chossemain	c ho s se ma in	0	n/a	n/a	10	6	1.667	3
565.5145	0.2015	565.716	4	reading aloud	63	pseudoword	congruent	bauillet	b au ill et	1	0.6573	n/a	8	4	2	2
567.871	0.2015	568.0725	4	reading aloud	64	word	incongruent	gouttière	go u tt iè re	1	0.5255	10.95	9	6	1.5	2
570.63	0.2016	570.8317	4	reading aloud	65	pseudoword	incongruent	anloiche	a n lo i che	1	0.5707	n/a	8	5	1.6	2
575.9939	0.2019	576.1958	4	reading aloud	66	pseudoword	incongruent	emblon	e mb lo n	1	0.5724	n/a	6	4	1.5	2
580.7322	0.2023	580.9344	4	reading aloud	67	word	congruent	banquet	b an qu et	1	0.6157	5.88	7	4	1.75	2
585.4507	0.2013	585.652	4	reading aloud	68	pseudoword	incongruent	chon	c ho n	1	0.5949	n/a	4	2	2	1
587.8275	0.2017	588.0292	4	reading aloud	69	word	incongruent	sentant	se n ta nt	1	0.636	2.84	7	4	1.75	2
592.795	0.2015	592.9965	4	reading aloud	70	word	congruent	croissant	c r oi ss ant	1	0.5703	18.72	9	6	1.5	2
595.232	0.2027	595.4347	4	reading aloud	71	word	incongruent	chuchotant	c hu c ho ta nt	1	0.5844	1.89	10	6	1.667	3
597.6121	0.2015	597.8136	4	reading aloud	72	word	incongruent	feuilleton	fe ui lle t o n	1	1.0123	6.28	10	6	1.667	3
605.2735	0.2016	605.4751	4	reading aloud	73	word	congruent	champ	ch amp	1	0.5558	106.49	5	2	2.5	1
609.9924	0.2016	610.194	4	reading aloud	74	word	incongruent	pinceau	pi nc ea u	1	0.599	17.91	7	4	1.75	2
612.3307	0.2019	612.5326	4	reading aloud	75	pseudoword	incongruent	vessouillé	v es so ui ll é	0	n/a	n/a	10	6	1.667	3
615.0705	0.2017	615.2721	4	reading aloud	76	pseudoword	congruent	soutresse	s ou t r esse	1	0.6231	n/a	9	6	1.5	2
617.4686	0.2015	617.6701	4	reading aloud	77	word	incongruent	heureuse	he u re use	1	0.5754	190	8	4	2	2
619.8489	0.2016	620.0505	4	reading aloud	78	pseudoword	congruent	sonffreite	s on ff r ei te	0	n/a	n/a	10	6	1.667	2
622.5082	0.2016	622.7098	4	reading aloud	79	pseudoword	incongruent	incantrant	i nc a nt ra nt	1	0.6194	n/a	10	6	1.667	3
624.8881	0.2015	625.0897	4	reading aloud	80	pseudoword	congruent	croiffend	c r oi ff end	0	n/a	n/a	9	6	1.5	2
627.248	0.2015	627.4495	4	reading aloud	81	word	congruent	chevreuil	ch e v r euil	1	0.6545	5.14	9	6	1.5	2
629.9292	0.2013	630.1305	4	reading aloud	82	word	incongruent	surchauffe	s u rc ha uff e	1	0.6307	0.27	10	6	1.667	2
632.2865	0.2012	632.4877	4	reading aloud	83	pseudoword	incongruent	enquanseur	e nq ua nse ur	1	0.9053	n/a	10	6	1.667	3
634.9645	0.2013	635.1659	4	reading aloud	84	pseudoword	incongruent	gainple	ga i np le	1	0.8292	n/a	7	4	1.75	1
637.6276	0.2021	637.8297	4	reading aloud	85	pseudoword	congruent	caitiment	c ai t i m ent	1	0.6606	n/a	9	6	1.5	3
640.2876	0.2016	640.4891	4	reading aloud	86	pseudoword	congruent	fenteau	f en t eau	0	n/a	n/a	7	4	1.75	2
642.6676	0.2015	642.8691	4	reading aloud	87	word	congruent	tendon	t en d on	1	0.6543	3.99	6	4	1.5	2
645.3283	0.2014	645.5297	4	reading aloud	88	pseudoword	incongruent	plochant	p lo c ha nt	1	0.6831	n/a	8	5	1.6	2
648.0082	0.2017	648.2099	4	reading aloud	89	word	congruent	soignante	s oi gn an te	1	0.604	0.27	9	6	1.5	2
652.6724	0.2018	652.8742	4	reading aloud	90	pseudoword	congruent	oufrence	ou f r en ce	1	0.5391	n/a	8	5	1.6	2
655.4067	0.2016	655.6084	4	reading aloud	91	pseudoword	congruent	breuil	b r eu il	1	0.5903	n/a	6	4	1.5	2
657.7872	0.2016	657.9888	4	reading aloud	92	pseudoword	incongruent	confrainte	co n f rai n te	1	0.6501	n/a	10	6	1.667	2
660.1683	0.2015	660.3698	4	reading aloud	93	word	incongruent	verrouillé	v er ro ui ll é	1	0.6188	1.08	10	6	1.667	3
665.13	0.2016	665.3316	4	reading aloud	94	word	incongruent	angoisse	a n go i sse	1	0.5759	68.99	8	5	1.6	2
667.5649	0.2018	667.7667	4	reading aloud	95	pseudoword	congruent	rymphe	r ym phe	1	0.5742	n/a	6	3	2	1
669.9451	0.2015	670.1466	4	reading aloud	96	pseudoword	incongruent	choutre	c ho ut re	1	0.5898	n/a	7	4	1.75	1
672.3044	0.2015	672.506	4	reading aloud	97	pseudoword	congruent	bigne	b i gne	1	0.4891	n/a	5	3	1.667	1
674.6857	0.2016	674.8873	4	reading aloud	98	word	congruent	fondant	f on d ant	1	0.6215	2.7	7	4	1.75	2
677.0675	0.2015	677.269	4	reading aloud	99	word	incongruent	inquiétant	i nq ui é ta nt	1	0.627	20.88	10	6	1.667	3
682.1282	0.2015	682.3296	4	reading aloud	100	word	congruent	souplesse	s ou p l esse	1	0.611	9.86	9	6	1.5	2
684.5661	0.2013	684.7673	4	reading aloud	101	pseudoword	congruent	sonfflant	s on ff l ant	1	0.5297	n/a	9	5	1.8	2
687.3251	0.2013	687.5264	4	reading aloud	102	pseudoword	incongruent	soncieuse	so nc ie u s e	0	n/a	n/a	9	6	1.5	2
689.7037	0.2017	689.9054	4	reading aloud	103	word	incongruent	reine	re i ne	1	0.6466	33.78	5	3	1.667	1
692.3643	0.2022	692.5665	4	reading aloud	104	word	congruent	bûche	b û che	1	0.508	13.18	5	3	1.667	1
694.746	0.2015	694.9475	4	reading aloud	105	word	congruent	condiment	c on d i m ent	1	0.6241	0.61	9	6	1.5	3
697.1266	0.2018	697.3284	4	reading aloud	106	pseudoword	congruent	cauglant	c au g l ant	1	0.763	n/a	8	5	1.6	2
699.5874	0.202	699.7894	4	reading aloud	107	word	congruent	feuillage	f eu ill a ge	1	0.7002	23.72	9	5	1.8	2
702.2642	0.2016	702.4657	4	reading aloud	108	word	congruent	oiseau	oi s eau	1	0.5258	113.04	6	4	1.5	2
704.9257	0.2015	705.1272	4	reading aloud	109	pseudoword	congruent	chincedant	ch in c e d ant	1	0.7281	n/a	10	6	1.667	3
707.3056	0.2017	707.5073	4	reading aloud	110	pseudoword	congruent	imbrante	im b r an te	1	0.6554	n/a	8	5	1.6	2
709.6661	0.2016	709.8676	4	reading aloud	111	word	congruent	souffrant	s ou ff r ant	1	0.604	5.14	9	5	1.8	2
714.649	0.2015	714.8506	4	reading aloud	112	pseudoword	congruent	frouche	f r ou che	1	0.7366	n/a	7	4	1.75	1
717.3841	0.2017	717.5858	4	reading aloud	113	word	incongruent	terreau	t er rea u	1	0.5709	3.78	7	4	1.75	2
719.7472	0.2017	719.9489	4	reading aloud	114	pseudoword	congruent	pentouet	p en t ou et	1	0.5761	n/a	8	5	1.6	2
722.1238	0.2015	722.3253	4	reading aloud	115	word	incongruent	ampoule	a mpo u le	1	0.5475	19.12	7	4	1.75	2
727.0873	0.2015	727.2888	4	reading aloud	116	pseudoword	congruent	tambain	t am b ain	1	0.6449	n/a	7	4	1.75	2
729.4224	0.2014	729.6238	4	reading aloud	117	word	congruent	château	ch â t eau	1	0.5421	74.12	7	4	1.75	2
732.1037	0.2013	732.305	4	reading aloud	118	word	congruent	incessant	in c e ss ant	1	0.5751	12.23	9	5	1.8	3
734.4633	0.2013	734.6646	4	reading aloud	119	pseudoword	congruent	chotant	ch o t ant	1	0.6339	n/a	7	4	1.75	2
736.8435	0.2013	737.0449	4	reading aloud	120	pseudoword	incongruent	batougne	b a to ug ne	1	0.5186	n/a	8	5	1.6	2
