onset	duration	offset	block	task	trial	lexicality	congruency	stimulus	stimulus_spaced	correct	response_time	word_freq	nb_letters	nb_phonemes	ratio	nb_syllables
7.32574479582763	5	12.3257447958276	1	instructions reading aloud	n/a	n/a	n/a	n/a	n/a	n/a	n/a	n/a	n/a	n/a	n/a	n/a
17.5659	0.2014	17.7673	1	reading aloud	1	word	incongruent	vengeance	ve ng ea n ce	1	0.8087	17.03	9	5	1.8	2
20.0113	0.2015	20.2128	1	reading aloud	2	word	congruent	rampant	r am p ant	1	0.6728	2.84	7	4	1.75	2
22.373	0.2014	22.5743	1	reading aloud	3	pseudoword	congruent	incantrant	in c an t r ant	1	0.8284	n/a	10	6	1.667	3
29.9641	0.2016	30.1657	1	reading aloud	4	pseudoword	congruent	gangnière	g an gn i è re	0	n/a	n/a	9	6	1.5	2
32.6526	0.2015	32.8541	1	reading aloud	5	word	congruent	phalange	ph a l an ge	1	0.6539	5.2	8	5	1.6	2
35.0316	0.2015	35.2331	1	reading aloud	6	pseudoword	congruent	sougnemain	s ou gn e m ain	0	n/a	n/a	10	6	1.667	3
37.792	0.2015	37.9935	1	reading aloud	7	word	congruent	offensant	o ff en s ant	1	0.8335	1.01	9	5	1.8	3
40.1716	0.2016	40.3732	1	reading aloud	8	pseudoword	incongruent	mantroche	ma n tr oc h e	1	1.023	n/a	9	6	1.5	2
44.8354	0.2015	45.0369	1	reading aloud	9	pseudoword	incongruent	chochoute	c ho c ho u te	0	n/a	n/a	9	5	1.8	2
47.2714	0.2026	47.474	1	reading aloud	10	word	incongruent	moustache	mo u st ac h e	1	0.7232	45.07	9	6	1.5	2
49.952	0.2016	50.1536	1	reading aloud	11	word	congruent	paillasson	p a ill a ss on	1	0.8628	4.39	10	6	1.667	3
52.4105	0.2015	52.612	1	reading aloud	12	pseudoword	congruent	guenquette	gu en qu ette	1	1.4153	n/a	10	5	2	2
54.7884	0.203	54.9914	1	reading aloud	13	pseudoword	congruent	essant	e ss ant	1	0.7407	n/a	6	3	2	2
61.7775	0.2015	61.979	1	reading aloud	14	word	congruent	auvent	au v ent	1	0.7244	6.89	6	3	2	2
64.1692	0.2016	64.3707	1	reading aloud	15	pseudoword	congruent	chanffaim	ch an ff aim	1	0.7322	n/a	9	5	1.8	2
66.8479	0.2017	67.0496	1	reading aloud	16	pseudoword	incongruent	châssin	c hâ ssi n	1	0.6883	n/a	7	4	1.75	2
69.3059	0.2014	69.5073	1	reading aloud	17	word	congruent	nain	n ain	1	0.6982	8.99	4	2	2	1
71.6877	0.2013	71.889	1	reading aloud	18	pseudoword	incongruent	paisin	pa is i n	1	1.0886	n/a	6	4	1.5	2
74.0693	0.2013	74.2706	1	reading aloud	19	pseudoword	congruent	psougeuse	p s ou g eu se	0	n/a	n/a	9	6	1.5	2
76.7291	0.2021	76.9312	1	reading aloud	20	pseudoword	incongruent	moûtant	mo ût a nt	1	0.6608	n/a	7	4	1.75	2
79.1114	0.2015	79.3129	1	reading aloud	21	pseudoword	incongruent	taigeanse	ta ig ea ns e	1	1.3845	n/a	9	5	1.8	2
81.5707	0.2014	81.7721	1	reading aloud	22	pseudoword	incongruent	raivement	ra iv e me nt	0	n/a	n/a	9	6	1.5	3
86.2517	0.2025	86.4541	1	reading aloud	23	word	congruent	maillon	m a ill on	1	0.8655	3.18	7	4	1.75	2
88.99	0.2015	89.1914	1	reading aloud	24	pseudoword	congruent	guirboude	gu i r b ou de	1	1.0678	n/a	9	6	1.5	2
91.3494	0.2019	91.5513	1	reading aloud	25	word	incongruent	soudain	so ud ai n	1	0.579	65.27	7	4	1.75	2
93.7308	0.2015	93.9323	1	reading aloud	26	pseudoword	incongruent	vanchente	va nc he n te	0	n/a	n/a	9	5	1.8	2
96.3864	0.202	96.5884	1	reading aloud	27	pseudoword	congruent	cain	c ain	1	0.7165	n/a	4	2	2	1
99.0659	0.2026	99.2686	1	reading aloud	28	word	incongruent	beige	be ige	1	0.6915	8.11	5	3	1.667	1
101.4281	0.2015	101.6296	1	reading aloud	29	word	congruent	flambeau	f l am b eau	1	0.658	7.09	8	5	1.6	2
106.1119	0.2024	106.3143	1	reading aloud	30	pseudoword	incongruent	houceuse	ho uce us e	1	1.1145	n/a	8	4	2	2
108.5497	0.2023	108.752	1	reading aloud	31	word	incongruent	quinzaine	q ui n za ine	1	0.7371	11.89	9	5	1.8	2
110.9308	0.2015	111.1324	1	reading aloud	32	pseudoword	incongruent	orrigninse	o r ri gni n se	0	n/a	n/a	10	6	1.667	3
113.6905	0.2015	113.892	1	reading aloud	33	pseudoword	congruent	ingutient	in g u t i ent	1	1.0335	n/a	9	6	1.5	3
116.127	0.2013	116.3284	1	reading aloud	34	word	congruent	longueur	l on gu eu r	1	0.7145	28.45	8	5	1.6	2
118.5253	0.2014	118.7267	1	reading aloud	35	word	incongruent	humour	h um o ur	1	0.6323	16.76	6	4	1.5	2
121.1868	0.2014	121.3883	1	reading aloud	36	word	congruent	ambiance	am b i an ce	1	0.6466	11.55	8	5	1.6	2
123.5675	0.2013	123.7688	1	reading aloud	37	pseudoword	incongruent	pranquain	pra n q ua in	0	n/a	n/a	9	5	1.8	2
128.5311	0.2019	128.733	1	reading aloud	38	pseudoword	congruent	beuillant	b eu ill ant	1	0.7202	n/a	9	4	2.25	2
130.8893	0.2016	131.0909	1	reading aloud	39	word	congruent	gouttière	g ou tt i è re	1	0.6798	10.95	9	6	1.5	2
133.3471	0.2027	133.5498	1	reading aloud	40	pseudoword	incongruent	pansonce	pa n so nce	1	1.2274	n/a	8	5	1.6	2
135.7273	0.2016	135.9289	1	reading aloud	41	word	incongruent	chiffon	c hi ffo n	1	0.6689	18.99	7	4	1.75	2
138.0869	0.2019	138.2889	1	reading aloud	42	word	incongruent	intendant	i nte n da nt	1	0.7597	4.73	9	5	1.8	3
140.4659	0.2015	140.6674	1	reading aloud	43	word	congruent	chaise	ch ai se	1	0.7112	118.31	6	3	2	1
142.8502	0.2017	143.0518	1	reading aloud	44	pseudoword	congruent	tronchalle	t r on ch a lle	1	1.6032	n/a	10	6	1.667	2
145.21	0.2019	145.4119	1	reading aloud	45	word	incongruent	citrouille	c it ro ui l le	1	0.5819	2.91	10	6	1.667	2
147.5902	0.2015	147.7918	1	reading aloud	46	word	incongruent	ignorance	ig no ra n c e	1	0.6353	16.82	9	6	1.5	3
149.9468	0.2016	150.1484	1	reading aloud	47	pseudoword	incongruent	ennionde	e nn io n de	0	n/a	n/a	8	5	1.6	2
152.3256	0.2015	152.5272	1	reading aloud	48	word	congruent	content	c on t ent	1	0.6824	86.49	7	4	1.75	2
157.3703	0.2015	157.5718	1	reading aloud	49	pseudoword	incongruent	mengement	me ng e me nt	1	1.6558	n/a	9	6	1.5	3
160.0264	0.2026	160.2291	1	reading aloud	50	pseudoword	congruent	canreau	c an r eau	1	0.8591	n/a	7	4	1.75	2
162.7069	0.202	162.9089	1	reading aloud	51	pseudoword	congruent	engourrant	en g ou rr ant	1	0.7605	n/a	10	5	2	3
165.4669	0.2015	165.6684	1	reading aloud	52	word	incongruent	confondant	co n fo n da nt	1	0.7209	0.95	10	6	1.667	3
167.8459	0.2013	168.0473	1	reading aloud	53	word	incongruent	endeuillée	e nde ui llé e	1	0.6383	1.35	10	5	2	3
170.5053	0.2013	170.7066	1	reading aloud	54	word	congruent	plongeuse	p l on g eu se	1	0.6872	3.11	9	6	1.5	2
172.885	0.2015	173.0864	1	reading aloud	55	word	congruent	croissant	c r oi ss ant	1	0.6188	18.72	9	6	1.5	2
175.2479	0.2013	175.4492	1	reading aloud	56	pseudoword	congruent	ennaitose	en n ai t o se	0	n/a	n/a	9	6	1.5	3
179.9276	0.2015	180.1292	1	reading aloud	57	pseudoword	congruent	loutte	l ou tte	0	n/a	n/a	6	3	2	1
182.6654	0.2016	182.867	1	reading aloud	58	word	incongruent	néant	n éa nt	1	0.6207	23.99	5	3	1.667	2
185.0271	0.2015	185.2286	1	reading aloud	59	pseudoword	incongruent	imbrante	i mb ra n te	1	0.713	n/a	8	5	1.6	2
187.4043	0.2015	187.6058	1	reading aloud	60	pseudoword	congruent	trinche	t r in che	1	0.6194	n/a	7	4	1.75	1
189.7857	0.2016	189.9873	1	reading aloud	61	word	incongruent	envieuse	e nv ie u se	1	0.6699	1.76	8	5	1.6	2
192.1449	0.2015	192.3464	1	reading aloud	62	pseudoword	congruent	tambain	t am b ain	1	0.7129	n/a	7	4	1.75	2
194.5258	0.2015	194.7273	1	reading aloud	63	pseudoword	congruent	asseinse	a ss ein se	0	n/a	n/a	8	4	2	2
196.8843	0.2015	197.0858	1	reading aloud	64	pseudoword	incongruent	pambant	pa mb an t	1	0.7856	n/a	7	4	1.75	2
199.5665	0.2016	199.7681	1	reading aloud	65	pseudoword	congruent	couvoeur	c ou v oeu r	1	0.9361	n/a	8	5	1.6	2
204.5317	0.2017	204.7334	1	reading aloud	66	word	incongruent	imprudent	i mp ru de n t	1	0.6485	0.95	9	6	1.5	3
206.9643	0.2016	207.1659	1	reading aloud	67	pseudoword	incongruent	naidant	na id an t	1	0.8666	n/a	7	4	1.75	2
211.9483	0.2016	212.1499	1	reading aloud	68	word	incongruent	rangement	ra ng e me nt	1	0.9282	2.16	9	6	1.5	3
216.988	0.2018	217.1898	1	reading aloud	69	word	incongruent	faussaire	fa us sa i re	1	0.7063	1.35	9	5	1.8	2
219.7248	0.2013	219.9261	1	reading aloud	70	word	incongruent	plongeant	plo n g ea nt	1	0.7455	1.28	9	5	1.8	2
222.3844	0.2013	222.5858	1	reading aloud	71	pseudoword	incongruent	conteilant	co n te i la nt	0	n/a	n/a	10	6	1.667	3
224.7634	0.2014	224.9648	1	reading aloud	72	word	congruent	feuillage	f eu ill a ge	1	0.5818	23.72	9	5	1.8	2
227.4237	0.2014	227.6251	1	reading aloud	73	word	incongruent	penseuse	pe n se use	1	0.6415	3.92	8	5	1.6	2
229.8032	0.2013	230.0045	1	reading aloud	74	pseudoword	incongruent	chaiguette	c ha ig ue tte	0	n/a	n/a	10	5	2	2
232.1647	0.2016	232.3663	1	reading aloud	75	pseudoword	incongruent	lonteau	lo nt ea u	1	0.7977	n/a	7	4	1.75	2
234.8465	0.2015	235.048	1	reading aloud	76	word	incongruent	rougissant	ro ug is sa nt	1	0.6662	2.16	10	6	1.667	3
237.2026	0.2018	237.4045	1	reading aloud	77	pseudoword	incongruent	feutteau	fe ut tea u	1	0.7388	n/a	8	4	2	2
239.8826	0.2015	240.0842	1	reading aloud	78	word	congruent	bouillant	b ou ill ant	1	0.6519	8.11	9	4	2.25	2
242.5446	0.2015	242.7461	1	reading aloud	79	pseudoword	incongruent	tanquanse	ta nq ua n se	1	0.927	n/a	9	5	1.8	2
244.9235	0.2016	245.1251	1	reading aloud	80	word	incongruent	causant	ca u sa nt	1	0.7475	1.96	7	4	1.75	2
247.2827	0.2016	247.4844	1	reading aloud	81	word	incongruent	embauche	e mba uc he	1	0.6263	2.97	8	4	2	2
251.9685	0.2021	252.1706	1	reading aloud	82	pseudoword	congruent	fangueuse	f an gu eu se	0	n/a	n/a	9	5	1.8	2
254.306	0.2019	254.508	1	reading aloud	83	word	congruent	émouvante	é m ou v an te	1	0.6329	14.05	9	6	1.5	3
256.6841	0.2024	256.8865	1	reading aloud	84	pseudoword	incongruent	anloiche	a n lo i che	1	0.7935	n/a	8	5	1.6	2
259.0429	0.2015	259.2444	1	reading aloud	85	word	incongruent	tombant	to m ba nt	1	0.7186	9.12	7	4	1.75	2
261.7227	0.2016	261.9243	1	reading aloud	86	pseudoword	incongruent	jouanre	jo ua nr e	0	n/a	n/a	7	4	1.75	1
264.086	0.2018	264.2878	1	reading aloud	87	pseudoword	congruent	bitoumeau	b i t ou m eau	1	1.0383	n/a	9	6	1.5	3
266.4645	0.2015	266.666	1	reading aloud	88	pseudoword	congruent	étoupante	é t ou p ante	1	0.6299	n/a	9	6	1.5	3
268.844	0.2015	269.0456	1	reading aloud	89	word	congruent	souffrant	s ou ff r ant	1	0.5967	5.14	9	5	1.8	2
271.6016	0.2013	271.8029	1	reading aloud	90	word	incongruent	avant	a va nt	1	0.532	21.35	5	3	1.667	2
274.0407	0.2013	274.242	1	reading aloud	91	pseudoword	incongruent	assagnin	as sa gni n	0	n/a	n/a	8	5	1.6	3
276.7409	0.2018	276.9428	1	reading aloud	92	pseudoword	congruent	mendain	m en d ain	1	0.7395	n/a	7	4	1.75	2
279.0996	0.2014	279.301	1	reading aloud	93	word	congruent	haillon	ha ill on	1	0.6312	3.78	7	3	2.333	2
281.4797	0.2015	281.6813	1	reading aloud	94	word	congruent	chameau	ch a m eau	1	0.5965	10.54	7	4	1.75	2
286.1672	0.2015	286.3687	1	reading aloud	95	word	incongruent	innocence	in no ce n c e	1	0.6845	20	9	6	1.5	3
293.2139	0.2021	293.4161	1	reading aloud	96	word	incongruent	changement	c ha ng e me n t	1	0.6491	36.42	10	6	1.667	3
295.6211	0.2016	295.8226	1	reading aloud	97	pseudoword	congruent	aitance	ai t an ce	1	0.9113	n/a	7	4	1.75	2
300.8867	0.2015	301.0882	1	reading aloud	98	word	congruent	saignement	s ai gn e m ent	1	0.6233	0.54	10	6	1.667	3
303.6217	0.2016	303.8233	1	reading aloud	99	pseudoword	incongruent	chatreuil	c ha tre u il	1	0.5279	n/a	9	6	1.5	2
310.8892	0.202	311.0912	1	reading aloud	100	word	congruent	penchant	p en ch ant	1	0.6564	5.27	8	4	2	2
313.3004	0.2016	313.502	1	reading aloud	101	pseudoword	congruent	auvaid	au v aid	1	0.688	n/a	6	3	2	2
318.6461	0.2016	318.8478	1	reading aloud	102	pseudoword	congruent	leireux	l ei r eux	1	0.7012	n/a	7	4	1.75	2
321.0809	0.2015	321.2824	1	reading aloud	103	word	congruent	enseignant	en s ei gn ant	1	0.6164	1.69	10	5	2	3
323.4799	0.2015	323.6814	1	reading aloud	104	pseudoword	incongruent	hulour	h ul o ur	1	0.7657	n/a	6	4	1.5	2
326.1414	0.2015	326.3429	1	reading aloud	105	pseudoword	incongruent	caitiment	ca i t i me nt	1	0.9106	n/a	9	6	1.5	3
328.8206	0.2014	329.022	1	reading aloud	106	word	congruent	intension	in t en s i on	1	0.6845	0	9	6	1.5	3
331.176	0.2018	331.3778	1	reading aloud	107	word	congruent	oeuf	oeu f	1	0.6638	50.14	4	2	2	1
333.8596	0.2022	334.0618	1	reading aloud	108	pseudoword	congruent	offouzant	o ff ou z ant	1	1.0091	n/a	9	5	1.8	3
336.2203	0.2016	336.4219	1	reading aloud	109	word	congruent	plainte	p l ain te	1	0.7075	26.69	7	4	1.75	1
338.5988	0.2015	338.8003	1	reading aloud	110	word	incongruent	joueuse	jo ue us e	1	0.6193	19.86	7	4	1.75	1
343.2857	0.2015	343.4872	1	reading aloud	111	pseudoword	incongruent	feurchille	fe ur c hi lle	0	n/a	n/a	10	6	1.667	2
345.7217	0.2018	345.9235	1	reading aloud	112	word	congruent	abaissant	a b ai ss ant	1	0.5993	0.27	9	5	1.8	3
348.0796	0.2015	348.281	1	reading aloud	113	word	incongruent	pendant	pe n da nt	1	0.659	12.5	7	4	1.75	2
350.4595	0.2015	350.661	1	reading aloud	114	word	incongruent	humeur	h um e ur	1	0.6832	58.04	6	4	1.5	2
352.8408	0.2025	353.0433	1	reading aloud	115	pseudoword	congruent	édoulette	é d ou l ette	1	0.5928	n/a	9	6	1.5	3
355.5012	0.2017	355.7029	1	reading aloud	116	word	incongruent	poulain	po ul ai n	1	0.6413	3.78	7	4	1.75	2
358.1611	0.202	358.3631	1	reading aloud	117	word	congruent	entourage	en t ou r a ge	1	0.6241	10.74	9	6	1.5	3
363.1441	0.2016	363.3456	1	reading aloud	118	pseudoword	incongruent	guessier	g u es sie r	1	0.9413	n/a	8	5	1.6	2
368.1833	0.2016	368.385	1	reading aloud	119	word	congruent	inconstant	in c on s t ant	1	0.76	0.54	10	6	1.667	3
370.5178	0.202	370.7199	1	reading aloud	120	pseudoword	congruent	bouquon	b ou qu on	1	0.638	n/a	7	4	1.75	2
381.485592499375	5	386.485592499375	2	instructions lexical decision	n/a	n/a	n/a	n/a	n/a	n/a	n/a	n/a	n/a	n/a	n/a	n/a
393.9608	0.202	394.1628	2	lexical decision	1	word	incongruent	couteau	co ut ea u	1	0.5485	52.64	7	4	1.75	2
396.32	0.2023	396.5223	2	lexical decision	2	pseudoword	congruent	maisance	m ai s an ce	1	1.0682	n/a	8	5	1.6	2
401.5854	0.2023	401.7877	2	lexical decision	3	pseudoword	incongruent	naissirron	na iss ir ro n	1	0.8769	n/a	10	6	1.667	3
404.22	0.2014	404.4214	2	lexical decision	4	word	congruent	chercheuse	ch e r ch eu se	1	0.6831	3.78	10	6	1.667	2
406.617	0.2016	406.8186	2	lexical decision	5	word	incongruent	aire	a ire	1	0.6721	5.14	4	2	2	1
408.959	0.2015	409.1605	2	lexical decision	6	word	incongruent	enfantin	e nf a nti n	1	0.7221	31.15	8	5	1.6	3
411.3348	0.2024	411.5372	2	lexical decision	7	pseudoword	congruent	cheue	ch eue	1	0.7572	n/a	5	2	2.5	1
413.9989	0.202	414.2009	2	lexical decision	8	pseudoword	incongruent	incerdant	i nc e rd a nt	1	0.9091	n/a	9	6	1.5	3
416.3572	0.2015	416.5587	2	lexical decision	9	pseudoword	incongruent	vessouillé	v es so ui ll é	1	0.7048	n/a	10	6	1.667	3
419.0383	0.2018	419.2401	2	lexical decision	10	pseudoword	incongruent	dounnin	do un ni n	1	0.7147	n/a	7	4	1.75	2
421.4185	0.2014	421.6199	2	lexical decision	11	word	congruent	pingouin	p in g ou in	0	0.6284	2.64	8	5	1.6	2
423.776	0.2016	423.9776	2	lexical decision	12	word	congruent	boeuf	b oeu f	1	0.6599	21.01	5	3	1.667	1
426.1579	0.2014	426.3593	2	lexical decision	13	word	congruent	souillure	s ou ill u re	1	0.729	2.91	9	5	1.8	2
428.5111	0.2017	428.7128	2	lexical decision	14	pseudoword	incongruent	choupache	c ho up ac he	1	0.6288	n/a	9	5	1.8	2
438.7049	0.2015	438.9064	2	lexical decision	15	word	incongruent	saint	sai nt	1	0.6078	42.77	5	2	2.5	1
441.3745	0.2014	441.5759	2	lexical decision	16	pseudoword	incongruent	oipeau	o ip ea u	1	0.914	n/a	6	4	1.5	2
443.7358	0.2015	443.9373	2	lexical decision	17	word	congruent	chambre	ch am b re	1	0.557	413.31	7	4	1.75	1
446.1186	0.2016	446.3202	2	lexical decision	18	word	congruent	outrance	ou t r an ce	1	0.9689	3.51	8	5	1.6	2
448.7774	0.2014	448.9788	2	lexical decision	19	word	congruent	saisissant	s ai s i ss ant	1	0.6242	5	10	6	1.667	3
451.1551	0.2015	451.3566	2	lexical decision	20	word	congruent	dansant	d an s ant	1	0.5475	6.89	7	4	1.75	2
456.1411	0.2015	456.3425	2	lexical decision	21	word	congruent	enchanteur	en ch an t eur	1	0.5945	2.64	10	6	1.667	3
458.478	0.2015	458.6795	2	lexical decision	22	word	congruent	fournaise	f ou r n ai se	1	0.6825	3.18	9	6	1.5	2
460.8366	0.2015	461.0381	2	lexical decision	23	pseudoword	congruent	embreince	em b r ein ce	1	0.7328	n/a	9	5	1.8	2
463.2165	0.2015	463.418	2	lexical decision	24	pseudoword	congruent	douvant	d ou v ant	1	0.9059	n/a	7	4	1.75	2
465.5752	0.2015	465.7767	2	lexical decision	25	pseudoword	incongruent	chousou	c ho uso u	1	0.6873	n/a	7	4	1.75	2
468.256	0.2015	468.4575	2	lexical decision	26	word	congruent	faisceau	f ai sc eau	1	0.6823	10	8	4	2	2
480.132	0.2016	480.3335	2	lexical decision	27	word	incongruent	anglaise	a ng la is e	1	0.7411	79.53	8	5	1.6	2
482.4758	0.2016	482.6774	2	lexical decision	28	word	congruent	enfance	en f an ce	1	0.4665	103.99	7	4	1.75	2
485.1546	0.2017	485.3564	2	lexical decision	29	pseudoword	congruent	fanseuil	f an s euil	1	1.1054	n/a	8	5	1.6	2
487.5126	0.2013	487.7139	2	lexical decision	30	pseudoword	incongruent	gachain	g ac ha in	1	0.6696	n/a	7	4	1.75	2
489.8938	0.2019	490.0957	2	lexical decision	31	word	congruent	mensonge	m en s on ge	1	0.5583	35.41	8	5	1.6	2
492.5553	0.2014	492.7566	2	lexical decision	32	word	incongruent	encombrant	e nco m b ra nt	1	0.7639	6.08	10	6	1.667	3
495.2339	0.2015	495.4354	2	lexical decision	33	pseudoword	congruent	maîcheton	m aî ch e t on	1	0.731	n/a	9	6	1.5	3
497.5946	0.2016	497.7962	2	lexical decision	34	word	congruent	éreintant	é r ein t ant	1	0.6985	0.14	9	5	1.8	3
502.2782	0.202	502.4802	2	lexical decision	35	word	incongruent	conjoint	co n joi nt	1	0.5457	0.95	8	5	1.6	2
504.6138	0.2017	504.8155	2	lexical decision	36	pseudoword	incongruent	chetant	c he tan t	1	0.9521	n/a	7	4	1.75	2
506.9691	0.2015	507.1707	2	lexical decision	37	word	incongruent	contraire	co n t ra i re	1	0.5387	126.01	9	6	1.5	2
509.354	0.2015	509.5555	2	lexical decision	38	word	incongruent	rengaine	re ng a in e	1	0.6599	4.59	8	5	1.6	2
511.7352	0.2015	511.9367	2	lexical decision	39	pseudoword	incongruent	constaige	co n s ta i ge	1	0.9675	n/a	9	6	1.5	2
516.6963	0.2016	516.898	2	lexical decision	40	word	incongruent	vaisseau	va is sea u	1	0.6155	12.43	8	4	2	2
519.0723	0.2035	519.2758	2	lexical decision	41	word	incongruent	incessant	i nc e ssa nt	1	0.5754	12.23	9	5	1.8	3
521.4141	0.2015	521.6156	2	lexical decision	42	word	congruent	planche	p l an che	1	0.6706	41.55	7	4	1.75	1
523.7915	0.202	523.9935	2	lexical decision	43	pseudoword	incongruent	quau	qua u	1	0.6991	n/a	4	2	2	1
531.0631	0.2016	531.2647	2	lexical decision	44	pseudoword	congruent	coudraince	c ou d r ain ce	1	0.8945	n/a	10	6	1.667	2
533.4731	0.2016	533.6747	2	lexical decision	45	pseudoword	congruent	frangne	f r an gne	1	1.4954	n/a	7	4	1.75	1
536.1308	0.2014	536.3321	2	lexical decision	46	word	congruent	singe	s in ge	1	0.5408	22.57	5	3	1.667	1
538.5112	0.2014	538.7125	2	lexical decision	47	pseudoword	incongruent	voussette	vo u sse tte	1	0.7902	n/a	9	5	1.8	2
540.8515	0.2013	541.0528	2	lexical decision	48	word	incongruent	souffle	so u ff le	1	0.7509	100.2	7	4	1.75	1
543.2511	0.2018	543.4529	2	lexical decision	49	pseudoword	congruent	saillaîte	s a ill aî te	1	0.7324	n/a	9	5	1.8	2
545.9301	0.2013	546.1314	2	lexical decision	50	pseudoword	incongruent	vanrreau	va nr rea u	1	0.8063	n/a	8	4	2	2
548.2911	0.2015	548.4926	2	lexical decision	51	pseudoword	incongruent	gougue	go ug ue	1	0.7133	n/a	6	3	2	1
550.6722	0.2023	550.8744	2	lexical decision	52	pseudoword	incongruent	semphle	se mp hl e	1	0.9351	n/a	7	4	1.75	1
555.336	0.2022	555.5381	2	lexical decision	53	word	incongruent	chapeau	c ha pea u	1	0.5954	88.04	7	4	1.75	2
557.9721	0.2015	558.1736	2	lexical decision	54	word	congruent	mouton	m ou t on	1	0.5892	30.47	6	4	1.5	2
560.6518	0.2026	560.8543	2	lexical decision	55	pseudoword	incongruent	chougnon	cho u gno n	0	0.7484	n/a	8	4	2	2
563.3112	0.2015	563.5127	2	lexical decision	56	pseudoword	incongruent	hindet	hi nde t	1	1.207	n/a	6	3	2	2
566.0136	0.2015	566.2152	2	lexical decision	57	word	incongruent	naissance	na is sa n ce	1	0.7434	52.91	9	5	1.8	2
568.3527	0.2016	568.5543	2	lexical decision	58	word	incongruent	couveuse	co u ve use	1	1.4144	0.95	8	5	1.6	2
570.749	0.2015	570.9506	2	lexical decision	59	word	congruent	empreinte	em p r ein te	1	0.589	15.61	9	5	1.8	2
573.3924	0.2015	573.5939	2	lexical decision	60	pseudoword	incongruent	retouffant	r e to uf fa nt	1	0.7408	n/a	10	6	1.667	3
578.3756	0.2017	578.5773	2	lexical decision	61	pseudoword	incongruent	neuquant	ne uq ua nt	1	0.7494	n/a	8	4	2	2
580.7112	0.2017	580.9129	2	lexical decision	62	pseudoword	incongruent	congon	co n go n	1	0.6908	n/a	6	4	1.5	2
583.1069	0.2015	583.3084	2	lexical decision	63	word	incongruent	bleuet	b le ue t	0	0.689	1.22	6	4	1.5	2
588.0562	0.2012	588.2574	2	lexical decision	64	word	congruent	louveteau	l ou v e t eau	1	0.7117	2.36	9	6	1.5	3
590.6921	0.2019	590.894	2	lexical decision	65	word	congruent	contrainte	c on t r ain te	1	0.5748	5.81	10	6	1.667	2
593.0241	0.2015	593.2256	2	lexical decision	66	pseudoword	incongruent	imphongé	i mp ho ng é	1	0.9816	n/a	8	5	1.6	3
595.4279	0.2013	595.6293	2	lexical decision	67	word	incongruent	pince	pi nc e	1	0.643	14.73	5	3	1.667	1
597.8088	0.2015	598.0103	2	lexical decision	68	pseudoword	incongruent	noumon	no u mo n	1	0.7189	n/a	6	4	1.5	2
600.1708	0.202	600.3728	2	lexical decision	69	pseudoword	congruent	tangein	t an ge in	1	0.8479	n/a	7	4	1.75	2
602.5521	0.2015	602.7536	2	lexical decision	70	pseudoword	incongruent	entrouille	e nt ro ui lle	1	0.7246	n/a	10	5	2	2
605.2096	0.2016	605.4113	2	lexical decision	71	pseudoword	congruent	caillon	c a ill on 	1	0.6411	n/a	7	4	1.75	2
607.5929	0.2015	607.7944	2	lexical decision	72	word	congruent	endeuillé	en d eu ill é	1	0.6097	1.35	9	5	1.8	3
609.9573	0.2018	610.159	2	lexical decision	73	pseudoword	congruent	loudetain	l ou d e t ain	1	0.7495	n/a	9	6	1.5	3
612.3294	0.2029	612.5323	2	lexical decision	74	pseudoword	congruent	donche	d on che	1	0.7613	n/a	6	3	2	1
614.6668	0.2014	614.8682	2	lexical decision	75	word	congruent	euphorie	eu ph o r ie	1	0.7997	8.11	8	5	1.6	3
617.3705	0.2017	617.5722	2	lexical decision	76	pseudoword	congruent	enquanseur	en qu an s eur	1	0.6952	n/a	10	6	1.667	3
624.6583	0.2018	624.8601	2	lexical decision	77	word	congruent	peigné	p ei gn é	1	0.9501	1.89	6	4	1.5	2
627.0525	0.2016	627.2541	2	lexical decision	78	word	incongruent	bondissant	bo n d is sa nt	0	0.629	2.77	10	6	1.667	3
629.7291	0.2023	629.9313	2	lexical decision	79	word	incongruent	chanson	c ha nso n	1	0.5593	46.55	7	4	1.75	2
632.09	0.2015	632.2915	2	lexical decision	80	word	congruent	entendant	en t en d ant	1	0.9714	0.74	9	5	1.8	3
634.4703	0.2015	634.6718	2	lexical decision	81	pseudoword	congruent	sonronnant	s on r o nn ant	1	0.8001	n/a	10	6	1.667	3
636.826	0.2015	637.0276	2	lexical decision	82	word	congruent	dessin	d e ss in	1	0.7133	56.28	6	4	1.5	2
639.5087	0.2013	639.7101	2	lexical decision	83	pseudoword	congruent	frouche	f r ou che	1	0.6626	n/a	7	4	1.75	1
641.8691	0.2014	642.0705	2	lexical decision	84	word	congruent	embout	em b out	1	0.6202	0.81	6	3	2	2
646.8515	0.2013	647.0528	2	lexical decision	85	word	congruent	caillou	c a ill ou	1	0.9438	38.58	7	4	1.75	2
649.1874	0.2013	649.3887	2	lexical decision	86	word	incongruent	dauphin	da up hi n	1	0.5659	11.82	7	4	1.75	2
651.5708	0.2016	651.7724	2	lexical decision	87	pseudoword	congruent	lanceteau	l an c e t eau	1	1.4113	n/a	9	6	1.5	3
654.2291	0.202	654.4311	2	lexical decision	88	pseudoword	congruent	chaimmant	ch ai mm ant	1	1.2529	n/a	9	4	2.25	2
656.8836	0.2015	657.0851	2	lexical decision	89	pseudoword	congruent	moupeau	m ou p eau	1	0.7015	n/a	7	4	1.75	2
661.5762	0.2019	661.7781	2	lexical decision	90	pseudoword	congruent	ceinritin	c ein r i t in	1	0.6687	n/a	9	6	1.5	3
663.9087	0.2025	664.1112	2	lexical decision	91	word	congruent	rencontre	r en c on t re	1	0.6253	81.76	9	6	1.5	2
666.5862	0.2015	666.7877	2	lexical decision	92	pseudoword	incongruent	angieu	a ng ie u	1	0.8737	n/a	6	4	1.5	2
668.9492	0.2015	669.1506	2	lexical decision	93	word	incongruent	ascension	as ce n s io n	1	0.9078	8.04	9	6	1.5	3
671.6273	0.2014	671.8288	2	lexical decision	94	pseudoword	congruent	empout	em p out	1	0.7824	n/a	6	3	2	2
673.9874	0.2021	674.1895	2	lexical decision	95	word	incongruent	auteur	a ut e ur	1	0.6065	41.89	6	4	1.5	2
676.6688	0.2015	676.8702	2	lexical decision	96	word	incongruent	ampoule	a mpo u le	1	1.0999	19.12	7	4	1.75	2
679.0285	0.2016	679.23	2	lexical decision	97	pseudoword	incongruent	breuil	b re ui l	1	0.8324	n/a	6	4	1.5	2
681.4087	0.202	681.6107	2	lexical decision	98	pseudoword	congruent	soutresse	s ou t r esse	1	1.026	n/a	9	6	1.5	2
683.8151	0.2015	684.0166	2	lexical decision	99	pseudoword	congruent	moeutien	m oeu t i en	1	0.7417	n/a	8	5	1.6	2
686.4484	0.2015	686.6498	2	lexical decision	100	pseudoword	congruent	détouenant	d é t oue n ant	1	0.9963	n/a	10	6	1.667	3
691.4253	0.2018	691.627	2	lexical decision	101	pseudoword	incongruent	noussante	no us sa n te	0	0.6624	n/a	9	5	1.8	2
693.7733	0.2013	693.9746	2	lexical decision	102	pseudoword	congruent	bouin	b ou in	1	0.6553	n/a	5	3	1.667	1
696.1257	0.2019	696.3276	2	lexical decision	103	pseudoword	congruent	janguelle	j an gu elle	1	0.685	n/a	9	5	1.8	2
698.5068	0.2014	698.7082	2	lexical decision	104	pseudoword	congruent	poigeain	p oi ge ain	1	0.7008	n/a	8	5	1.6	2
700.866	0.2014	701.0674	2	lexical decision	105	word	incongruent	champagne	c ha mp ag ne	1	0.7115	29.86	9	5	1.8	2
705.8487	0.2015	706.0502	2	lexical decision	106	word	incongruent	bûche	b ûc he	1	0.7128	13.18	5	3	1.667	1
708.4874	0.2028	708.6902	2	lexical decision	107	word	congruent	inventeur	in v en t eu r	1	0.5849	2.03	9	6	1.5	3
710.8487	0.2022	711.0508	2	lexical decision	108	word	congruent	gourmand	g ou r m and	1	0.5118	9.86	8	5	1.6	2
713.2281	0.2015	713.4296	2	lexical decision	109	pseudoword	incongruent	bachechon	b ach ec ho n	1	0.5893	n/a	9	6	1.5	3
715.6071	0.2016	715.8086	2	lexical decision	110	word	incongruent	gagnant	g ag na nt	1	0.5573	1.89	7	4	1.75	2
718.2654	0.2015	718.4668	2	lexical decision	111	pseudoword	congruent	pangné	p an gn é	1	0.749	n/a	6	4	1.5	2
722.9694	0.2025	723.1719	2	lexical decision	112	word	incongruent	bandeau	ba nd ea u	1	0.467	6.49	7	4	1.75	2
725.588	0.2016	725.7896	2	lexical decision	113	word	incongruent	inchangé	i nc ha ng é	1	1.0221	1.69	8	5	1.6	3
727.9475	0.2015	728.149	2	lexical decision	114	word	incongruent	repoussant	r e po us sa nt	1	0.7648	2.57	10	6	1.667	3
730.3241	0.202	730.5261	2	lexical decision	115	pseudoword	congruent	roeud	r oeud	1	0.674	n/a	5	2	2.5	1
732.6861	0.2017	732.8879	2	lexical decision	116	pseudoword	congruent	raite	r ai te	1	0.9121	n/a	5	3	1.667	1
735.0675	0.2022	735.2697	2	lexical decision	117	pseudoword	incongruent	moustesse	mo us te s se	1	0.7986	n/a	9	6	1.5	2
737.7247	0.2017	737.9264	2	lexical decision	118	pseudoword	incongruent	poute	po ut e	1	0.7345	n/a	5	3	1.667	1
740.1086	0.2015	740.3101	2	lexical decision	119	pseudoword	incongruent	fouillomon	fo ui llo m o n	1	0.7225	n/a	10	6	1.667	3
742.764	0.2012	742.9652	2	lexical decision	120	word	incongruent	encaisse	e nca is se	1	0.602	0.2	8	4	2	2
